timestamp,ax,ay,az,gx,gy,gz,label
928492570338267,-0.20578274,2.37368,9.552148,0.30604327,-0.40683594,0.61330825,0
928492578918215,-0.13160525,2.3234308,9.506684,0.27550003,-0.34697118,0.59253883,0
928492587498215,-0.03589234,2.2779672,9.468399,0.25106543,-0.27305657,0.5839867,0
928492596078215,0.06699903,2.2372892,9.35833,0.23273948,-0.20158538,0.5833759,0
928492604658163,0.18903299,2.2468605,9.370294,0.20891576,-0.13561198,0.5833759,0
928492613238163,0.22253251,2.2707887,9.427721,0.18448116,-0.103236146,0.58154327,0
928492621818111,0.22731815,2.321038,9.439685,0.16554436,-0.112399116,0.5723803,0
928492630402070,0.18664017,2.4311078,9.466006,0.15699224,-0.13561198,0.55955213,0
928492638978059,0.148355,2.524428,9.446864,0.16126831,-0.16187917,0.5400045,0
928492647558059,0.15074782,2.5866413,9.377472,0.17776164,-0.18814635,0.51556987,0
928492656138059,0.2321038,2.6321049,9.241081,0.20402883,-0.20402883,0.4893027,0
928492664718007,0.37806597,2.6368906,9.049655,0.23212862,-0.20952661,0.4648681,0
928492673298007,0.526421,2.6129622,8.800801,0.25656322,-0.18997894,0.4422661,0
928492681877955,0.58624154,2.605784,8.5112705,0.26572618,-0.13439025,0.41538805,0
928492690457955,0.55752766,2.6105695,8.283952,0.2480111,-0.05131264,0.38117963,0
928492699037903,0.4235296,2.6416762,8.13799,0.20097451,0.033597562,0.34452772,0
928492707617903,0.2105684,2.6823542,8.008778,0.13255766,0.0971275,0.31459537,0
928492716197851,-0.021535404,2.751746,8.003992,0.051923506,0.13805544,0.30115634,0
928492724777851,-0.13399807,2.845066,8.059027,-0.034208428,0.1631009,0.30543238,0
928492733357851,-0.040677983,2.9383862,8.207381,-0.118507765,0.15821397,0.31948227,0
928492741937799,0.19621146,2.9479575,8.382058,-0.1924224,0.118507765,0.32925612,0
928492750517799,0.52163535,2.914458,8.597412,-0.2547306,0.056810424,0.32375833,0
928492759097747,0.80159557,2.9072795,8.750552,-0.30054548,0.0042760535,0.29749113,0
928492767677747,0.9403793,2.900101,8.867801,-0.32925612,-0.0018325944,0.24556763,0
928492776257695,0.9020941,2.87378,8.903693,-0.34697118,0.046425723,0.16920954,0
928492784837695,0.74416786,2.8354948,8.894122,-0.35979936,0.12950334,0.07941242,0
928492793417642,0.5072784,2.7565317,8.874979,-0.37323838,0.21624613,-0.01282816,0
928492801997642,0.22013968,2.6249263,8.930014,-0.39645123,0.2761109,-0.103236146,0
928492810577590,-0.08135597,2.495714,8.970692,-0.433714,0.28954992,-0.17348559,0
928492819157590,-0.34217364,2.4191437,9.0951185,-0.47280934,0.2669479,-0.21380267,0
928492827737538,-0.52163535,2.3377876,9.281759,-0.5076286,0.22235478,-0.22418737,0
928492836317538,-0.5599205,2.2420747,9.439685,-0.5338958,0.16249003,-0.21258095,0
928492844897538,-0.40917268,2.132005,9.540184,-0.5424479,0.10445788,-0.18936808,0
928492853477486,-0.22013968,2.0171494,9.499506,-0.5393936,0.07513637,-0.17043127,0
928492862057486,-0.1052842,1.9381863,9.396614,-0.53145236,0.07941242,-0.16676609,0
928492870637434,-0.11485548,1.8735801,9.32483,-0.5259546,0.115453444,-0.18264857,0
928492879217434,-0.27038896,1.8376877,9.202796,-0.53145236,0.16126831,-0.21135922,0
928492887797382,-0.54317075,1.7994026,9.1669035,-0.5503892,0.21258095,-0.23518294,0
928492896377382,-0.81595254,1.7874385,9.272188,-0.58032155,0.252898,-0.23884813,0
928492904957382,-1.0097711,1.7467605,9.408579,-0.61025393,0.26816964,-0.2131918,0
928492913537330,-1.0600204,1.6773686,9.619147,-0.6359102,0.26816964,-0.16493349,0
928492922117278,-1.0289137,1.5960127,9.844072,-0.6487384,0.252898,-0.11178826,0
928492930697330,-1.0241281,1.5816557,10.090533,-0.650571,0.22357652,-0.06291907,0
928492939277278,-1.0576276,1.591227,10.315458,-0.6359102,0.19303326,-0.023212861,0
928492947857278,-1.0695918,1.5816557,10.413564,-0.6023127,0.17104214,0.005497783,0
928492956437226,-1.0001999,1.5457634,10.363315,-0.5540544,0.1631009,0.034208428,0
928492965017174,-0.8805587,1.5002998,10.370493,-0.5051852,0.16982041,0.06597339,0
928492973597174,-0.79920274,1.4213367,10.329815,-0.46181378,0.16432263,0.10690133,0
928492982177174,-0.67477596,1.3878372,10.219746,-0.4233293,0.1472184,0.15821397,0
928492990757122,-0.40917268,1.4404793,10.102497,-0.38973173,0.13622284,0.21868959,0
928492999337122,-0.050249275,1.6007984,10.078569,-0.36346453,0.12156209,0.28221953,0
928493007917070,0.124426775,1.7419748,10.1599245,-0.34269515,0.07819069,0.32681265,0
928493016497070,0.14356937,1.8233309,10.313066,-0.32192573,0.027488915,0.33108872,0
928493025077017,0.038285162,1.8281165,10.406385,-0.29810202,-0.01527162,0.29382595,0
928493033657017,-0.15074782,1.8329022,10.420743,-0.2687805,-0.028099779,0.23640467,0
928493042236965,-0.27038896,1.8281165,10.406385,-0.23884813,-0.0097738365,0.18142684,0
928493050816965,0.033499517,1.9118652,10.514063,-0.21380267,0.034819294,0.14782928,0
928493059396965,0.21774685,1.9070797,10.499705,-0.18997894,0.14782928,0.13316852,0
928493067976913,0.3493521,1.8376877,10.454242,-0.17409647,0.24129158,0.12889247,0
928493076556913,0.55034924,1.8376877,10.540383,-0.17470732,0.26572618,0.13744457,0
928493085136861,0.5910272,1.875973,10.688739,-0.17715079,0.284663,0.14599667,0
928493093716861,0.4881358,1.8999012,10.796415,-0.16126831,0.29260424,0.14966187,0
928493102296809,0.37328035,1.9070797,10.880164,-0.12705988,0.28710645,0.14844014,0
928493110876809,0.22253251,1.8664017,10.880164,-0.07819069,0.2828304,0.14355323,0
928493119456809,0.033499517,1.8448663,10.779666,-0.021380268,0.26633704,0.13561198,0
928493128036757,-0.1794617,1.8640088,10.581061,0.036651887,0.22479823,0.13316852,0
928493136616757,-0.22971097,1.8927227,10.327422,0.09224058,0.15515965,0.1404989,0
928493145196705,-0.016749758,1.8903298,10.097712,0.14110976,0.07208204,0.1594357,0
928493153776705,0.2632105,1.8376877,10.030712,0.17348559,-0.013439025,0.1802051,0
928493162356653,0.44745782,1.7635103,9.920643,0.19181155,-0.08857539,0.18997894,0
928493170936653,0.5383851,1.7371893,9.906285,0.19914192,-0.12156209,0.18509203,0
928493179516601,0.53599226,1.7754744,9.891929,0.20219624,-0.098960094,0.16615522,0
928493188096601,0.39720857,1.8065811,9.899107,0.2046397,-0.045814857,0.13316852,0
928493196676549,0.2536392,1.8735801,9.868001,0.20280711,0.013439025,0.09224058,0
928493205256549,0.10767702,1.8975084,9.810573,0.20341797,0.06352994,0.051923506,0
928493213836497,0.047856454,1.8999012,9.762716,0.20158538,0.09651663,0.018325943,0
928493222416497,-0.04546363,1.8903298,9.705289,0.19914192,0.0971275,-0.0042760535,0
928493230996497,-0.0071784677,1.9094725,9.8321085,0.19364414,0.07391464,-0.013439025,0
928493239576445,-0.02632105,1.9214365,9.997213,0.18631376,0.023823727,-0.013439025,0
928493248156445,-0.15553348,1.7826529,9.937392,0.1924224,-0.050090913,-0.0061086477,0
928493256736392,-0.2105684,1.8017955,9.8727865,0.20952661,-0.07819069,0.0024434591,0
928493265316340,-0.2440679,1.9046868,9.913465,0.21991132,-0.07086031,0.01527162,0
928493273896340,-0.11246266,1.9716859,9.954143,0.21991132,-0.073303774,0.03604102,0
928493282476340,0.1363909,1.9860427,9.932607,0.21746786,-0.10690133,0.056199558,0
928493291056340,0.33499518,1.9381863,9.899107,0.22663084,-0.14660755,0.062308207,0
928493299636288,0.41156548,1.8975084,9.856036,0.24129158,-0.17959425,0.047647454,0
928493308216288,0.3182454,1.8975084,9.693324,0.25778493,-0.21013749,0.016493348,0
928493316796236,0.18664017,1.9334008,9.521041,0.26816964,-0.239459,-0.015882485,0
928493325376236,0.040677983,1.9357935,9.2793665,0.2687805,-0.252898,-0.04214967,0
928493333956184,-0.016749758,1.9214365,9.018549,0.24862197,-0.24251331,-0.05497783,0
928493342536132,-0.062213387,1.8687944,8.841479,0.20341797,-0.20891576,-0.06169734,0
928493351116184,-0.033499517,1.8687944,8.896515,0.1386663,-0.16920954,-0.06291907,0
928493359696132,-0.03589234,1.8855443,9.104691,0.074525505,-0.14172062,-0.06291907,0
928493368276080,-0.1052842,1.8448663,9.437292,0.021991132,-0.12339468,-0.06597339,0
928493376856080,-0.19381863,1.7922242,9.836894,-0.0061086477,-0.11300998,-0.07086031,0
928493385436080,-0.22253251,1.7491534,10.100104,0.0012217296,-0.11606431,-0.07147118,0
928493394016028,-0.15314065,1.6965113,10.396814,0.039095346,-0.112399116,-0.06352994,0
928493402596028,-0.10289137,1.6295122,10.63849,0.10140356,-0.09590577,-0.049480047,0
928493411176028,-0.09092726,1.6438692,10.724631,0.18997894,-0.07880156,-0.03604102,0
928493419755976,-0.18424734,1.7012969,10.633704,0.2932151,-0.06597339,-0.02565632,0
928493428335924,-0.18664017,1.8065811,10.164711,0.39400777,-0.06780599,-0.014660755,0
928493436915924,-0.24646074,1.902294,9.468399,0.46975502,-0.102014415,-0.0018325944,0
928493445495924,-0.34217364,1.9812572,8.85823,0.49541134,-0.18448116,0.011606431,0
928493454075872,-0.35174492,2.0865414,8.508878,0.4630355,-0.29749113,0.027488915,0
928493462655872,-0.30388847,2.1702902,8.362915,0.38973173,-0.3988947,0.04459313,0
928493471235820,-0.22971097,2.1487548,8.439486,0.29810202,-0.45692685,0.05864302,0
928493479815820,-0.18424734,2.105684,8.719446,0.20586143,-0.47830713,0.06963859,0
928493488395767,-0.26799613,2.024328,9.111869,0.1404989,-0.46242464,0.08124501,0
928493496975767,-0.1698904,1.9740787,9.513863,0.11728604,-0.38973173,0.103236146,0
928493505555715,-0.05742774,1.9932213,9.745967,0.13255766,-0.26939136,0.12705988,0
928493514135715,0.0526421,2.1008983,9.753145,0.17409647,-0.14110976,0.14477496,0
928493522715715,0.1268196,2.160719,9.631111,0.2254091,-0.05864302,0.15332706,0
928493531295663,0.033499517,2.2061825,9.487542,0.27183482,-0.049480047,0.1472184,0
928493539875663,-0.09092726,2.2348964,9.296116,0.29626942,-0.09224058,0.13316852,0
928493548455611,-0.014356935,2.2851455,9.202796,0.29810202,-0.12767074,0.12705988,0
928493557035611,0.16031912,2.3042881,9.080762,0.28160867,-0.15210533,0.12767074,0
928493565615559,0.30388847,2.306681,9.099904,0.25045455,-0.16676609,0.12095123,0
928493574195559,0.31345975,2.3449662,9.164511,0.21868959,-0.17898338,0.100181825,0
928493582775507,0.22253251,2.3952155,9.265009,0.1960876,-0.17898338,0.07208204,0
928493591355507,0.062213387,2.4071796,9.267402,0.18509203,-0.1594357,0.043982264,0
928493599935507,-0.02632105,2.3784657,9.18126,0.17715079,-0.126449,0.026267186,0
928493608515455,-0.13160525,2.349752,9.128618,0.16249003,-0.08429934,0.020158539,0
928493617095455,-0.11006984,2.388037,9.300901,0.13927718,-0.037262753,0.019547673,0
928493625675403,-0.02632105,2.4622145,9.554541,0.11606431,0.0024434591,0.025045456,0
928493634255403,0.031106694,2.5531418,9.745967,0.109344795,0.02443459,0.025045456,0
928493642835351,0.1363909,2.5339992,9.810573,0.11911863,0.021991132,0.018325943,0
928493651415351,0.13399807,2.6153553,9.896714,0.13316852,0.0048869182,-0.0030543238,0
928493659995299,0.047856454,2.6536403,9.820144,0.17104214,0.0048869182,-0.032986697,0
928493668575299,0.016749758,2.7206392,9.698111,0.20586143,-0.017104214,-0.053145237,0
928493677155247,0.06699903,2.725425,9.585648,0.23151775,-0.037262753,-0.06352994,0
928493685735247,0.13399807,2.7086751,9.590433,0.2535089,-0.04214967,-0.064140804,0
928493694315247,0.08135597,2.713461,9.533006,0.2706131,-0.042760536,-0.06291907,0
928493702895195,-0.078963146,2.696711,9.365508,0.28405213,-0.042760536,-0.06108648,0
928493711475195,-0.3278167,2.7014968,9.06162,0.27977607,-0.04092794,-0.05070178,0
928493720055142,-0.5096712,2.7110682,8.779266,0.24740024,-0.032375835,-0.02565632,0
928493728635142,-0.567099,2.7158537,8.535198,0.18570289,-0.032375835,0.01282816,0
928493737215142,-0.45942193,2.6895328,8.427522,0.10690133,-0.051923506,0.05497783,0
928493745795090,-0.25842485,2.6632116,8.405986,0.028710645,-0.08613193,0.08918626,0
928493754375038,-0.086141616,2.644069,8.451449,-0.03604102,-0.11423171,0.112399116,0
928493762955038,0.0,2.684747,8.602198,-0.09346231,-0.124616414,0.12339468,0
928493771534986,0.021535404,2.7397819,8.815159,-0.13561198,-0.10445788,0.118507765,0
928493780114986,0.047856454,2.778067,8.968299,-0.1545488,-0.07574723,0.10384701,0
928493788694934,-0.019142581,2.7732813,9.164511,-0.1545488,-0.07391464,0.083688475,0
928493797274934,-0.17228323,2.7445676,9.348758,-0.1423315,-0.103236146,0.067195125,0
928493805854882,-0.35413775,2.6895328,9.396614,-0.118507765,-0.14477496,0.06291907,0
928493814434882,-0.49052864,2.6009982,9.305687,-0.092851445,-0.19120067,0.07513637,0
928493823014882,-0.51206404,2.5459633,9.336794,-0.08429934,-0.23151775,0.106290475,0
928493831594830,-0.4642076,2.5052853,9.360723,-0.086742796,-0.26939136,0.14782928,0
928493840174830,-0.2847459,2.4741786,9.303294,-0.08613193,-0.29016078,0.194255,0
928493848754830,-0.12921242,2.4478576,9.250652,-0.07941242,-0.2877173,0.2290743,0
928493857334778,-0.014356935,2.3952155,9.150154,-0.067195125,-0.2791652,0.25106543,0
928493865914778,-0.08853444,2.3808584,9.202796,-0.06108648,-0.252898,0.2602284,0
928493874494726,-0.2536392,2.3521447,9.169296,-0.056199558,-0.1960876,0.26083925,0
928493883074726,-0.43070808,2.3258235,9.195618,-0.0537561,-0.11911863,0.26267186,0
928493891654674,-0.5814559,2.3401806,9.363115,-0.049480047,-0.043371398,0.26572618,0
928493900234674,-0.6891329,2.3353949,9.506684,-0.034208428,0.0048869182,0.27000225,0
928493908814622,-0.7848458,2.349752,9.640682,-0.0067195124,0.0140498895,0.27550003,0
928493917394622,-0.91884387,2.3784657,9.597611,0.032986697,-0.010384701,0.28954992,0
928493925974622,-0.9212367,2.4143581,9.430114,0.07208204,-0.025045456,0.31642795,0
928493934554570,-0.80877405,2.4526432,9.298509,0.091629714,-0.02932151,0.3536907,0
928493943134517,-0.5838487,2.5387847,9.135797,0.083688475,-0.021380268,0.39400777,0
928493951714517,-0.25842485,2.644069,9.064013,0.05497783,-0.010384701,0.42821622,0
928493960294517,-0.0071784677,2.7158537,9.109476,0.01527162,0.0012217296,0.44470957,0
928493968874465,0.16271193,2.737389,9.176475,-0.021991132,0.023212861,0.43799004,0
928493977454465,0.18664017,2.7326035,9.434899,-0.050090913,0.05131264,0.41416633,0
928493986034413,0.10289137,2.7086751,9.674182,-0.06658426,0.08185588,0.3848448,0
928493994614413,-0.031106694,2.672783,9.731609,-0.06291907,0.10506874,0.35674503,0
928494003194413,-0.1052842,2.605784,9.8321085,-0.049480047,0.11178826,0.33841908,0
928494011774361,-0.16031912,2.5459633,9.853643,-0.034819294,0.116675176,0.33414304,0
928494020354361,-0.21535404,2.4909284,9.858429,-0.032375835,0.115453444,0.3414734,0
928494028934309,-0.1794617,2.4646072,9.8727865,-0.03848448,0.08796453,0.3573559,0
928494037514309,-0.09092726,2.4646072,9.973285,-0.04886918,0.051923506,0.3781253,0
928494046094257,0.05503492,2.4646072,10.176675,-0.054366965,0.03176497,0.40317076,0
928494054674257,0.22492532,2.4622145,10.389636,-0.043371398,0.018325943,0.42577276,0
928494063254205,0.39960137,2.4502504,10.442278,-0.007941242,-0.0097738365,0.44104436,0
928494071834205,0.44506502,2.4239295,10.243673,0.047647454,-0.039095346,0.44837475,0
928494080414205,0.39960137,2.4215364,9.930214,0.106290475,-0.059253883,0.45203993,0
928494088994153,0.33499518,2.416751,9.487542,0.14477496,-0.06658426,0.45875946,0
928494097574153,0.34217364,2.400001,9.075976,0.14905101,-0.06352994,0.46914417,0
928494106154101,0.40677986,2.4215364,8.906086,0.12400555,-0.07147118,0.4715876,0
928494114734101,0.5072784,2.4430718,8.822337,0.08124501,-0.09407318,0.46547896,0
928494123314049,0.6556334,2.3952155,8.829515,0.028710645,-0.10140356,0.45692685,0
928494131894049,0.76331043,2.359323,8.9348,-0.032375835,-0.08307761,0.44348782,0
928494140473997,0.83748794,2.3234308,9.133404,-0.09407318,-0.050090913,0.42699447,0
928494149053997,0.9068798,2.3018954,9.406186,-0.15271619,-0.020769402,0.40561423,0
928494157633945,0.9499506,2.268396,9.7196455,-0.18692462,0.0,0.37995788,0
928494166213945,1.0001999,2.1894326,10.052248,-0.1924224,0.020769402,0.3573559,0
928494174793945,1.1078769,2.024328,10.023534,-0.16676609,0.025045456,0.33780822,0
928494183373892,1.2777673,1.9597218,9.743574,-0.14844014,0.027488915,0.29932374,0
928494191953892,1.1844472,2.1224337,9.755538,-0.171653,0.028710645,0.22357652,0
928494200533840,0.9619147,2.2947168,9.944571,-0.1838703,0.005497783,0.1545488,0
928494209113840,0.849452,2.2301106,10.260424,-0.14905101,-0.02687805,0.116675176,0
928494217693840,0.9882358,1.9788643,10.375279,-0.056199558,-0.07880156,0.1075122,0
928494226273788,1.1964114,1.8687944,10.423136,0.064140804,-0.14355323,0.10384701,0
928494234853736,1.3686945,1.9142581,10.34178,0.18325943,-0.22296564,0.100181825,0
928494243433736,1.4931214,1.942972,10.114461,0.28160867,-0.28527385,0.08796453,0
928494252013684,1.550549,2.0075781,9.894321,0.34452772,-0.2864956,0.06169734,0
928494260593736,1.5864414,2.1176481,9.858429,0.3781253,-0.25778493,0.028099779,0
928494269173684,1.6079768,2.239682,10.07139,0.40378162,-0.22418737,-0.0073303776,0
928494277753632,1.538585,2.2707887,10.179068,0.44409868,-0.17837252,-0.048258316,0
928494286333632,1.430908,2.2707887,10.207782,0.5009091,-0.112399116,-0.09040799,0
928494294913580,1.3615161,2.239682,10.286744,0.5619956,-0.0073303776,-0.12889247,0
928494303493580,1.2873386,2.2995026,10.411171,0.61514086,0.118507765,-0.16004658,0
928494312073580,1.1940185,2.4047868,10.3848505,0.6591231,0.18997894,-0.18264857,0
928494320653528,1.0624132,2.5339992,10.1288185,0.7006619,0.19547673,-0.19975278,0
928494329233528,0.95712906,2.6991038,9.827323,0.73792464,0.17043127,-0.20586143,0
928494337813476,0.8709874,2.7852457,9.669396,0.77091134,0.12583815,-0.20525056,0
928494346393476,0.701097,2.8187451,9.178867,0.78862643,0.08185588,-0.20097451,0
928494354973424,0.485743,2.833102,8.939586,0.76907873,0.055588696,-0.18448116,0
928494363553424,0.3062813,2.900101,8.437093,0.7110466,0.02687805,-0.14294235,0
928494372133372,0.20817557,3.048456,8.255239,0.6218603,-0.016493348,-0.067195125,0
928494380713372,0.2321038,3.2590244,7.946564,0.5094612,-0.0537561,0.034208428,0
928494389293320,0.35653058,3.3906298,8.123632,0.38789913,-0.06597339,0.12339468,0
928494397873320,0.50488555,3.4504502,8.154739,0.2828304,-0.037262753,0.16371176,0
928494406453267,0.57427746,3.37388,8.456235,0.18875721,0.022601997,0.16371176,0
928494415033267,0.485743,3.3379877,8.752945,0.091018856,0.06963859,0.14477496,0
928494423613267,0.2943172,3.3092737,9.073584,0.016493348,0.055588696,0.1404989,0
928494432193215,0.2321038,3.2303107,9.071191,-0.028099779,0.042760536,0.16249003,0
928494440773215,0.34456646,3.1848469,9.276974,-0.04214967,0.06902772,0.19914192,0
928494449353163,0.45224348,3.1728828,9.343972,-0.032375835,0.09529491,0.23396121,0
928494457933163,0.5383851,3.2063823,9.542577,-0.0097738365,0.09040799,0.25656322,0
928494466513111,0.56470615,3.2135608,9.5665045,0.021380268,0.074525505,0.26572618,0
928494475093111,0.6053841,3.17049,9.616755,0.056199558,0.06475167,0.26267186,0
928494483673111,0.57906306,3.182454,9.489935,0.09529491,0.08735366,0.2535089,0
928494492253059,0.47138608,3.1752756,9.346365,0.12095123,0.08918626,0.24556763,0
928494500833059,0.38763726,3.1920254,9.099904,0.13072506,0.062308207,0.2516763,0
928494509413007,0.4426722,3.211168,8.882157,0.12278382,0.032375835,0.26633704,0
928494517993007,0.6125626,3.2398818,8.573483,0.09651663,0.0097738365,0.28344125,0
928494526572955,0.7465607,3.2446675,8.446664,0.043982264,0.0024434591,0.29260424,0
928494535152955,0.8279166,3.266203,8.4682,-0.025045456,0.02932151,0.28710645,0
928494543732955,0.8805587,3.2446675,8.506484,-0.08857539,0.073303774,0.27427828,0
928494552312903,0.9212367,3.1680973,8.585447,-0.1386663,0.116675176,0.25900668,0
928494560892851,0.8542377,3.1106694,8.664411,-0.17653993,0.1404989,0.24068072,0
928494569472851,0.6867401,3.0723844,8.800801,-0.20586143,0.15393792,0.22174391,0
928494578052799,0.48095736,3.0388846,9.080762,-0.23212862,0.14905101,0.20586143,0
928494586632799,0.29671,3.0053852,9.403793,-0.24556763,0.10995566,0.19792019,0
928494595212799,0.23449662,2.9623144,9.556933,-0.2516763,0.04459313,0.20341797,0
928494603792747,0.3062813,2.9072795,9.650253,-0.24495678,-0.020158539,0.21868959,0
928494612372747,0.4881358,2.8689942,9.738789,-0.2272417,-0.07391464,0.23701553,0
928494620952695,0.72502524,2.833102,9.736395,-0.19120067,-0.12828161,0.25228715,0
928494629532695,0.91884387,2.8426733,9.547362,-0.14782928,-0.19364414,0.25961754,0
928494638112695,0.971486,2.8785655,9.286545,-0.1178969,-0.2761109,0.25778493,0
928494646692642,1.0193424,2.8666015,8.867801,-0.10506874,-0.33902994,0.25228715,0
928494655272590,1.0576276,2.8498518,8.568698,-0.11606431,-0.37690356,0.24678937,0
928494663852642,1.052842,2.8378878,8.420342,-0.1508836,-0.41172287,0.23884813,0
928494672432590,0.7393822,2.7086751,8.451449,-0.19120067,-0.43799004,0.23518294,0
928494681012538,0.64606214,2.5842485,8.669196,-0.22846343,-0.4233293,0.24312419,0
928494689592538,0.80159557,2.5268207,8.91805,-0.2498437,-0.3677406,0.26633704,0
928494698172538,1.026521,2.5316064,9.085547,-0.25534147,-0.30421066,0.28405213,0
928494706752486,1.3016955,2.5818555,9.346365,-0.25411975,-0.24862197,0.28832817,0
928494715332434,1.4931214,2.656033,9.530613,-0.23273948,-0.21074834,0.27366742,0
928494723912434,1.6606189,2.7278178,9.592826,-0.18997894,-0.20647229,0.24251331,0
928494732492382,1.7682959,2.7708886,9.595219,-0.13500112,-0.2357938,0.2046397,0
928494741072382,1.7826529,2.8019953,9.518648,-0.07941242,-0.27427828,0.15760311,0
928494749652382,1.8161523,2.8139594,9.4229355,-0.02687805,-0.28527385,0.11056653,0
928494758232330,1.6558332,2.821138,9.267402,0.0067195124,-0.24862197,0.060475614,0
928494766812330,1.4596218,2.8402805,9.126225,0.0073303776,-0.17348559,0.021380268,0
928494775392330,1.2299109,2.8546374,8.992228,-0.02687805,-0.083688475,0.005497783,0
928494783972278,0.9810573,2.8594232,8.903693,-0.08735366,-0.0073303776,0.012217295,0
928494792552226,0.782453,2.8666015,8.941978,-0.15882485,0.037262753,0.04214967,0
928494801132226,0.70588267,2.8546374,9.107083,-0.22357652,0.05986475,0.083688475,0
928494809712174,0.6891329,2.821138,9.401401,-0.26816964,0.091018856,0.12400555,0
928494818292174,0.7322037,2.778067,9.865608,-0.2864956,0.13194679,0.1545488,0
928494826872122,0.68195444,2.7182465,10.243673,-0.2761109,0.16554436,0.17715079,0
928494835452122,0.72741807,2.658426,10.602597,-0.2480111,0.17104214,0.21197008,0
928494844032122,0.7513463,2.605784,10.676775,-0.18936808,0.14905101,0.24556763,0
928494852612122,0.7752745,2.6129622,10.600204,-0.10690133,0.13133593,0.26939136,0
928494861192070,0.8135597,2.6656044,10.499705,-0.010384701,0.102014415,0.28527385,0
928494869772017,0.8877372,2.7182465,10.423136,0.09773836,0.049480047,0.284663,0
928494878352017,0.99302137,2.751746,10.298709,0.21746786,-0.01527162,0.26633704,0
928494886932017,1.1246266,2.7852457,10.10489,0.32864526,-0.07941242,0.23090689,0
928494895511965,1.2705889,2.9072795,9.68136,0.41722065,-0.14538582,0.17837252,0
928494904091965,1.3782659,3.129812,9.090333,0.45387253,-0.17104214,0.12217296,0
928494912671913,1.5720844,3.4025939,8.709874,0.41416633,-0.118507765,0.08857539,0
928494921251913,1.8448663,3.7016966,8.475378,0.32253662,-0.034819294,0.06902772,0
928494929831913,2.0793629,3.9696927,8.410771,0.20525056,0.02443459,0.050090913,0
928494938411861,2.2157538,4.1778684,8.513663,0.07513637,0.08429934,0.026267186,0
928494946991809,2.3042881,4.287938,8.788837,-0.06291907,0.17776164,0.0048869182,0
928494955571809,2.1870399,4.254439,9.23151,-0.19364414,0.29749113,-0.010995566,0
928494964151809,1.8855443,4.063013,9.760324,-0.30237806,0.4196641,-0.010995566,0
928494972731757,1.5290136,3.7615173,9.88475,-0.37873617,0.49724394,0.0140498895,0
928494981311757,1.0959128,3.5030923,9.980463,-0.46181378,0.5186242,0.06475167,0
928494989891705,0.70348984,3.196811,10.260424,-0.54489136,0.51373726,0.14477496,0
928494998471705,0.50009996,2.7684958,10.695917,-0.5809324,0.5326741,0.25411975,0
928495007051653,0.31345975,2.3521447,11.054841,-0.54366964,0.57848895,0.36712974,0
928495015631653,0.11485548,2.0458634,11.303694,-0.43554658,0.6310233,0.4801397,0
928495024211653,-0.011964113,1.8305093,11.373086,-0.27305657,0.64812756,0.5931497,0
928495032791653,-0.1268196,1.6007984,10.916057,-0.08185588,0.6230821,0.69394237,0
928495041371601,-0.2632105,1.3806586,10.540383,0.05864302,0.5442805,0.7843504,0
928495049951549,-0.31345975,1.1988041,10.291531,0.1404989,0.47769627,0.85826504,0
928495058531549,-0.27517462,1.0456635,10.097712,0.18570289,0.45570514,0.9150754,0
928495067111497,-0.086141616,0.91405827,10.04507,0.18997894,0.4477639,0.95478165,0
928495075691497,0.36370903,0.82313097,10.085748,0.18325943,0.3781253,0.9773837,0
928495084271497,0.7537391,0.8279166,10.281959,0.18692462,0.21991132,0.96516633,0
928495092851445,1.0767702,0.9499506,10.41835,0.21746786,0.0048869182,0.9162972,0
928495101431445,1.538585,1.119841,10.514063,0.27672175,-0.16065744,0.8472695,0
928495110011392,2.2755744,1.3639089,10.612168,0.35613418,-0.22113305,0.75808316,0
928495118591392,3.1393833,1.6199409,10.648061,0.4489856,-0.20219624,0.6346885,0
928495127171340,3.8548372,1.8927227,10.473385,0.54183704,-0.15821397,0.4715876,0
928495135751340,4.223332,2.0985055,10.147961,0.6035344,-0.126449,0.27977607,0
928495144331288,4.237689,2.2755744,9.810573,0.6206386,-0.112399116,0.08796453,0
928495152911288,4.0558343,2.3832514,9.487542,0.59742576,-0.091629714,-0.074525505,0
928495161491236,3.8117664,2.4335005,9.245867,0.5412262,-0.083688475,-0.19914192,0
928495170071236,3.4743786,2.469393,9.138189,0.4648681,-0.13194679,-0.2913825,0
928495178651236,3.0556345,2.4382863,9.073584,0.38117963,-0.23029602,-0.34819293,0
928495187231184,2.617748,2.359323,9.099904,0.30421066,-0.34269515,-0.36712974,0
928495195811184,2.2444677,2.2444677,9.3200445,0.2498437,-0.43737918,-0.34574947,0
928495204391132,1.9334008,2.1391835,9.542577,0.23212862,-0.5070178,-0.29688028,0
928495212971132,1.8233309,2.0745773,9.611969,0.24373505,-0.5357284,-0.2290743,0
928495221551080,1.8687944,2.024328,9.523434,0.27122396,-0.53206325,-0.14844014,0
928495230131080,2.0147567,2.0051854,9.327223,0.30054548,-0.47403106,-0.064140804,0
928495238711080,2.160719,2.0482562,9.140582,0.31520623,-0.36529714,0.013439025,0
928495247291028,2.2947168,2.0602202,9.001799,0.31398448,-0.22235478,0.07880156,0
928495255871028,2.3521447,2.0721843,8.9108715,0.29810202,-0.041538805,0.12156209,0
928495264450976,2.3353949,2.115255,8.863015,0.26755878,0.14416409,0.13439025,0
928495273030976,2.2348964,2.2325034,8.886943,0.21930045,0.30115634,0.12705988,0
928495281610976,1.9645073,2.3856442,9.083155,0.16187917,0.4196641,0.108123064,0
928495290190924,1.7611175,2.495714,9.126225,0.12767074,0.46059203,0.09407318,0
928495298770872,1.847259,2.696711,9.140582,0.098960094,0.4166098,0.08185588,0
928495307350872,2.225325,3.0532417,9.133404,0.06963859,0.2877173,0.05131264,0
928495315930872,2.7684958,3.4911282,9.107083,0.051923506,0.08857539,-0.0061086477,0
928495324510872,3.3619158,3.897908,9.109476,0.05253437,-0.12889247,-0.09651663,0
928495333090820,3.8261235,4.130012,9.1669035,0.07269291,-0.30543238,-0.21807873,0
928495341670820,4.2592244,4.338187,9.193225,0.11117739,-0.42394015,-0.35857764,0
928495350250767,4.4674,4.505685,8.91805,0.16371176,-0.5045743,-0.51068294,0
928495358830767,4.429115,4.6779685,8.647661,0.194255,-0.54733485,-0.6591231,0
928495367410715,4.3334017,4.807181,8.439486,0.19120067,-0.55955213,-0.79534596,0
928495375990715,3.6777685,4.7306104,8.145168,0.18509203,-0.5907062,-0.9248493,0
928495384570663,3.2590244,4.685147,7.908279,0.17470732,-0.64079714,-1.0317506,0
928495393150663,2.6225336,4.6085763,7.7623167,0.14782928,-0.7043271,-1.1087196,0
928495401730663,2.1391835,4.4243293,7.5637126,0.100181825,-0.7831286,-1.1490366,0
928495410310611,1.7850457,4.2831526,7.537391,0.017104214,-0.80756325,-1.1478149,0
928495418890559,1.5864414,4.1371903,7.726424,-0.091018856,-0.77213305,-1.1239913,0
928495427470559,1.6390835,4.024728,7.948957,-0.1838703,-0.74281156,-1.0781764,0
928495436050507,1.6510476,3.8356948,8.212168,-0.24862197,-0.7189878,-1.0244203,0
928495444630507,1.1964114,3.4648073,8.508878,-0.27794346,-0.6310233,-0.98593575,0
928495453210507,0.7298109,3.0197423,8.860622,-0.26389357,-0.41294459,-0.9480621,0
928495461790455,0.3804588,2.7086751,9.236296,-0.21930045,-0.10384701,-0.88758653,0
928495470370455,-0.15792629,2.5627131,9.504292,-0.1875355,0.16432263,-0.80756325,0
928495478950455,-0.9595219,2.5435705,9.62154,-0.20280711,0.3488038,-0.70493793,0
928495487530403,-1.7802601,2.536392,9.662218,-0.26633704,0.4477639,-0.5705477,0
928495496110351,-2.5148566,2.4885356,9.540184,-0.36285368,0.45570514,-0.39767298,0
928495504690351,-3.0317063,2.361716,9.415757,-0.47097674,0.39828384,-0.16187917,0
928495513270299,-3.0293136,2.2325034,9.188439,-0.5583304,0.3347539,0.13988803,0
928495521850299,-2.5052853,2.062613,9.090333,-0.62674725,0.27672175,0.45265082,0
928495530430299,-1.5361922,1.9190438,9.075976,-0.65851223,0.23335035,0.71043575,0
928495539010247,-0.56470615,1.8879371,8.99462,-0.64629495,0.1802051,0.85765415,0
928495547590247,0.16749759,1.9573289,8.82473,-0.6084213,0.10445788,0.8967495,0
928495556170247,0.63170516,2.07697,8.539984,-0.56504995,0.034208428,0.8607085,0
928495564750195,0.8877372,2.2348964,8.305488,-0.5326741,0.0048869182,0.7867938,0
928495573330195,1.0671989,2.3928227,8.2049885,-0.51740247,0.0042760535,0.7012728,0
928495581910142,1.2035898,2.5124638,8.240881,-0.5094612,0.02443459,0.6163626,0
928495590490142,1.3663018,2.617748,8.410771,-0.4996874,0.05742129,0.5338958,0
928495599070090,1.5074782,2.6536403,8.63809,-0.4856375,0.06902772,0.45020735,0
928495607650090,1.6438692,2.6871397,8.980264,-0.4667007,0.031154104,0.36407542,0
928495616230090,1.9094725,2.7445676,9.217153,-0.42821622,-0.041538805,0.27550003,0
928495624810038,2.2157538,2.8283165,9.233903,-0.34391686,-0.09346231,0.17898338,0
928495633390038,2.3808584,2.9503503,9.152547,-0.24129158,-0.103236146,0.06169734,0
928495641969986,2.2372892,3.0269206,9.059227,-0.14416409,-0.080634154,-0.07513637,0
928495650549986,1.8640088,3.010171,8.965906,-0.064140804,-0.060475614,-0.21197008,0
928495659129934,1.4931214,2.8929226,8.848659,-0.0073303776,-0.0537561,-0.3243692,0
928495667709934,1.1294123,2.7565317,8.750552,0.020158539,-0.05497783,-0.39828384,0
928495676289882,0.8470592,2.6488547,8.645268,0.011606431,-0.056199558,-0.42821622,0
928495684869882,0.567099,2.603391,8.525627,-0.034819294,-0.046425723,-0.4214967,0
928495693449830,0.35653058,2.603391,8.487342,-0.11178826,-0.029932374,-0.3836231,0
928495702029830,0.23688944,2.6009982,8.645268,-0.21258095,-0.0073303776,-0.32864526,0
928495710609830,0.21296121,2.5842485,8.985049,-0.32314748,0.0061086477,-0.27244568,0
928495719189778,0.23449662,2.5579274,9.305687,-0.42027497,0.007941242,-0.22235478,0
928495727769778,0.27756742,2.5531418,9.62154,-0.49235702,0.011606431,-0.18081598,0
928495736349726,0.3589234,2.6129622,9.899107,-0.5363393,0.009162972,-0.14477496,0
928495744929726,0.4331009,2.6536403,10.169497,-0.5571087,0.0018325944,-0.118507765,0
928495753509674,0.5838487,2.6321049,10.310673,-0.5540544,-0.018325943,-0.100181825,0
928495762089674,0.79920274,2.565106,10.394422,-0.5235111,-0.04459313,-0.09346231,0
928495770669674,1.0169497,2.4933212,10.3848505,-0.4648681,-0.05253437,-0.098960094,0
928495779249622,1.2227324,2.498107,10.380065,-0.3903426,-0.03970621,-0.11056653,0
928495787829622,1.3615161,2.5531418,10.394422,-0.30421066,-0.021991132,-0.12400555,0
928495796409570,1.3974084,2.6679974,10.358529,-0.21441354,0.0018325944,-0.13500112,0
928495804989570,1.3280165,2.766103,10.267602,-0.12767074,0.03970621,-0.14294235,0
928495813569570,1.2251252,2.8546374,10.241281,-0.04703659,0.07574723,-0.14844014,0
928495822149517,1.1078769,2.9623144,10.305887,0.02687805,0.10445788,-0.15027274,0
928495830729517,0.9834501,3.0436704,10.389636,0.092851445,0.10384701,-0.14355323,0
928495839309465,0.8925229,3.1058838,10.4159565,0.14538582,0.064140804,-0.126449,0
928495847889465,0.7537391,3.1848469,10.454242,0.18875721,0.009162972,-0.10262528,0
928495856469413,0.5383851,3.1920254,10.5284195,0.23090689,-0.054366965,-0.07086031,0
928495865049413,0.32303107,3.0029924,10.573883,0.27977607,-0.13439025,-0.033597562,0
928495873629413,0.086141616,2.737389,10.573883,0.33108872,-0.19853105,0.010995566,0
928495882209361,-0.0047856453,2.5962126,10.564312,0.3903426,-0.24373505,0.05986475,0
928495890789361,0.05742774,2.4526432,10.51167,0.4648681,-0.29626942,0.108123064,0
928495899369309,0.2440679,2.3545375,10.437492,0.54550225,-0.34758207,0.14782928,0
928495907949309,0.39960137,2.3306093,10.372886,0.63041246,-0.365908,0.17715079,0
928495916529309,0.52163535,2.359323,10.289138,0.70493793,-0.33047783,0.20525056,0
928495925109257,0.59581286,2.3808584,10.167104,0.7629701,-0.27488914,0.23457208,0
928495933689257,0.6652047,2.440679,9.999606,0.80695236,-0.21930045,0.26267186,0
928495942269257,0.7393822,2.5339992,9.779466,0.8332196,-0.1753182,0.29077163,0
928495950849205,0.80159557,2.6943183,9.4636135,0.82588917,-0.1404989,0.31520623,0
928495959429205,0.97866446,2.914458,9.202796,0.7733548,-0.082466744,0.33597562,0
928495968009205,1.1437693,3.07717,9.066405,0.6707295,-0.0012217296,0.35307986,0
928495976589153,1.2418749,3.1274192,8.958728,0.5412262,0.09529491,0.36407542,0
928495985169153,1.3232309,3.1082766,8.803194,0.411112,0.2046397,0.3695732,0
928495993749101,1.2490535,3.07717,8.841479,0.29199335,0.33047783,0.35674503,0
928496002329101,1.174876,3.034099,8.968299,0.194255,0.45998117,0.33902994,0
928496010909049,1.0552348,2.9910283,9.226724,0.13500112,0.5729912,0.32314748,0
928496019489049,1.0049855,2.969493,9.499506,0.11117739,0.64079714,0.31642795,0
928496028068997,1.0217353,2.9982069,9.827323,0.1197295,0.6847794,0.320704,0
928496036648997,1.0911272,3.0317063,10.057034,0.16065744,0.72448564,0.33047783,0
928496045228945,1.2203395,3.0580273,10.183853,0.22785257,0.7855721,0.3414734,0
928496053808945,1.3328022,3.0939198,10.179068,0.31337363,0.88758653,0.34452772,0
928496062388945,1.3878372,3.1274192,10.1288185,0.411112,1.0195333,0.33841908,0
928496070968892,1.3184453,3.1872396,10.064212,0.5070178,1.1496475,0.33108872,0
928496079548892,1.1318051,3.2805598,10.068997,0.5882628,1.2492185,0.33169958,0
928496088128892,0.89491564,3.385844,10.100104,0.64751667,1.2657118,0.34636033,0
928496096708840,0.57906306,3.481557,9.999606,0.67683816,1.1899645,0.37384924,0
928496105288840,0.3397808,3.5509489,9.743574,0.67744905,1.0677916,0.40805766,0
928496113868788,0.16510476,3.591627,9.427721,0.6542362,0.97005326,0.44715303,0
928496122448788,0.124426775,3.5653057,9.135797,0.61025393,0.9193515,0.48258317,0
928496131028788,0.19621146,3.455236,8.894122,0.54672396,0.8826996,0.5051852,0
928496139608736,0.3589234,3.35713,8.618947,0.46547896,0.85765415,0.50885034,0
928496148188736,0.46181476,3.347559,8.786445,0.3536907,0.87475836,0.48258317,0
928496156768684,0.33738798,3.4408789,9.159725,0.24923283,0.89002997,0.4392118,0
928496165348684,0.18664017,3.5365918,9.420543,0.18325943,0.8527672,0.41294459,0
928496173928632,0.05742774,3.65384,9.485149,0.1545488,0.7806852,0.41355544,0
928496182508632,0.021535404,3.6801612,9.468399,0.14782928,0.7202096,0.42821622,0
928496191088632,0.11724831,3.6514473,9.444471,0.1594357,0.7024945,0.4489856,0
928496199668580,0.25603202,3.6083765,9.444471,0.18203771,0.72937256,0.45509425,0
928496208248580,0.36370903,3.548556,9.45165,0.20647229,0.7495311,0.4386009,0
928496216828528,0.35413775,3.4695928,9.370294,0.22418737,0.7519745,0.4074468,0
928496225408528,0.28235307,3.4360933,9.224331,0.23457208,0.7519745,0.36896232,0
928496233988476,0.15314065,3.4121652,9.085547,0.239459,0.7483094,0.33108872,0
928496242568476,0.03589234,3.4241292,8.95155,0.23640467,0.72631824,0.30237806,0
928496251148476,-0.059820566,3.481557,8.898908,0.2272417,0.6841686,0.28405213,0
928496259728424,-0.09332009,3.5150564,8.860622,0.21197008,0.62796897,0.27305657,0
928496268308424,-0.050249275,3.4983068,8.848659,0.18875721,0.5638282,0.2669479,0
928496276888372,-0.038285162,3.5988052,9.016156,0.16126831,0.5338958,0.252898,0
928496285468372,-0.050249275,3.737589,9.200403,0.14416409,0.5424479,0.23701553,0
928496294048320,-0.10289137,3.7710886,9.296116,0.14416409,0.5363393,0.22846343,0
928496302628320,-0.18424734,3.7136607,9.449257,0.15393792,0.50213087,0.22601996,0
928496311208320,-0.22492532,3.6251264,9.537791,0.17348559,0.4331031,0.23212862,0
928496319788267,-0.19381863,3.5509489,9.523434,0.20708317,0.36835146,0.22601996,0
928496328368267,-0.10767702,3.5174494,9.444471,0.26450446,0.3817905,0.18264857,0
928496336948267,-0.086141616,3.5676985,9.387043,0.32498005,0.43127054,0.12522727,0
928496345528215,-0.11006984,3.7088752,9.286545,0.37262753,0.41844237,0.07574723,0
928496354108215,-0.1698904,3.8476589,9.102298,0.4062251,0.34025168,0.047647454,0
928496362688215,-0.16749759,3.8835511,8.829515,0.4214967,0.23518294,0.03848448,0
928496371268163,-0.040677983,3.871587,8.506484,0.42027497,0.18875721,0.039095346,0
928496379848111,0.12203395,3.8811584,8.228917,0.40866855,0.22113305,0.035430156,0
928496388428111,0.23928227,3.9361932,8.1738825,0.38423395,0.2877173,0.022601997,0
928496397008111,0.28235307,4.034299,8.327023,0.34941465,0.33964083,0.005497783,0
928496405588059,0.18903299,4.1084766,8.410771,0.31337363,0.34758207,-0.009162972,0
928496414168059,0.0071784677,4.1276193,8.410771,0.2761109,0.33353218,-0.014660755,0
928496422748059,-0.19860429,4.165904,8.327023,0.23151775,0.33353218,-0.0048869182,0
928496431328007,-0.36610186,4.165904,8.221739,0.17287473,0.3518581,0.017715078,0
928496439908007,-0.4546363,4.156333,8.085348,0.10445788,0.36224282,0.0537561,0
928496448487955,-0.4642076,4.139583,7.891529,0.028099779,0.34574947,0.09834923,0
928496457067955,-0.3924229,4.15394,7.743174,-0.048258316,0.31459537,0.13988803,0
928496465647903,-0.30149564,4.2185464,7.7072816,-0.12095123,0.27855435,0.17348559,0
928496474227903,-0.28953153,4.3070807,7.7407813,-0.18936808,0.2516763,0.19547673,0
928496482807903,-0.2656033,4.369294,7.798209,-0.26511532,0.24862197,0.20402883,0
928496491387851,-0.15553348,4.2951164,7.8293157,-0.34941465,0.26083925,0.20769402,0
928496499967851,0.31106696,3.6586258,7.587641,-0.456316,0.26083925,0.21074834,0
928496508547799,-0.21535404,3.751946,7.9920278,-0.71165746,-0.07696896,0.19730933,0
928496517127799,-0.44745782,3.9290147,8.58784,-0.8344413,-0.16615522,0.216857,0
928496525707799,-0.89013004,4.26401,9.035298,-0.7867938,-0.077579826,0.18997894,0
928496534287799,-1.1964114,4.237689,9.360723,-0.67622733,-0.055588696,0.17898338,0
928496542867747,-1.2346965,3.9457645,9.497113,-0.56138474,-0.171653,0.22235478,0
928496551447747,-1.2394822,3.778267,9.365508,-0.424551,-0.28710645,0.28160867,0
928496560027695,-1.0600204,3.7304106,9.1669035,-0.28893903,-0.3188714,0.34819293,0
928496568607695,-0.60777694,3.7208393,9.288938,-0.19120067,-0.2602284,0.4196641,0
928496577187642,-0.22971097,3.7088752,9.413364,-0.1178969,-0.06536253,0.45998117,0
928496585767642,-0.016749758,3.7543387,9.399008,-0.05131264,0.19181155,0.4544834,0
928496594347590,-0.09092726,3.7806597,9.363115,-0.0006108648,0.3677406,0.4178315,0
928496602927590,-0.3900301,3.7686956,9.3104725,0.034208428,0.41844237,0.37384924,0
928496611507590,-0.7465607,3.7304106,9.169296,0.06352994,0.38851,0.33902994,0
928496620087590,-1.0241281,3.7136607,9.052048,0.08857539,0.32986698,0.33047783,0
928496628667538,-1.1581261,3.7160535,8.949157,0.10079269,0.26328272,0.34574947,0
928496637247538,-1.1030912,3.7184465,8.829515,0.103236146,0.2150244,0.3744601,0
928496645827486,-0.9523434,3.749553,8.707481,0.0971275,0.18264857,0.40133816,0
928496654407486,-0.7704889,3.818945,8.571091,0.07696896,0.14844014,0.41722065,0
928496662987434,-0.6652047,3.8955152,8.5112705,0.04092794,0.124616414,0.41538805,0
928496671567434,-0.64845496,3.9481573,8.49452,-0.0067195124,0.12217296,0.40011644,0
928496680147434,-0.66999036,3.9960139,8.575876,-0.053145237,0.14416409,0.38056874,0
928496688727382,-0.70348984,4.0510488,8.860622,-0.091018856,0.17898338,0.36285368,0
928496697307382,-0.7465607,4.058227,9.131011,-0.109344795,0.21380267,0.34697118,0
928496705887330,-0.8039884,4.0366917,9.281759,-0.09957096,0.24251331,0.33169958,0
928496714467330,-0.8542377,4.0151563,9.408579,-0.06780599,0.25717407,0.32192573,0
928496723047330,-0.9236295,4.0031924,9.480363,-0.020769402,0.28038692,0.31948227,0
928496731627278,-0.94755775,3.9960139,9.516255,0.034208428,0.30482152,0.31703883,0
928496740207278,-0.9738788,3.991228,9.485149,0.086742796,0.31276277,0.31398448,0
928496748787278,-0.95712906,3.9625144,9.312865,0.12522727,0.29565856,0.30787584,0
928496757367226,-0.9212367,3.952943,9.114262,0.14294235,0.25778493,0.29810202,0
928496765947226,-0.863809,3.9625144,8.953942,0.13316852,0.20586143,0.2877173,0
928496774527174,-0.8255238,4.019942,8.843872,0.10262528,0.1545488,0.2791652,0
928496783107174,-0.79441714,4.0701914,8.865408,0.058032155,0.11423171,0.27427828,0
928496791687174,-0.70348984,4.1108694,9.042477,0.0140498895,0.10140356,0.26816964,0
928496800267122,-0.59342,4.106084,9.2075815,-0.018325943,0.09651663,0.25595233,0
928496808847122,-0.5383851,4.101298,9.300901,-0.028710645,0.06658426,0.23518294,0
928496817427122,-0.5623133,4.1108694,9.281759,-0.022601997,0.016493348,0.20769402,0
928496826007070,-0.65084773,4.113262,9.186047,-0.0006108648,-0.02687805,0.18142684,0
928496834587070,-0.7465607,4.1491547,9.0544405,0.02443459,-0.0537561,0.16615522,0
928496843167017,-0.7465607,4.2017965,8.932407,0.050090913,-0.05864302,0.16187917,0
928496851747017,-0.715454,4.2041893,8.853444,0.06902772,-0.045814857,0.16432263,0
928496860327017,-0.69152576,4.1611185,8.882157,0.080634154,-0.025045456,0.17043127,0
928496868906965,-0.55752766,4.0390844,9.020942,0.08002329,-0.010995566,0.1753182,0
928496877486965,-0.37567315,3.897908,9.238688,0.07208204,-0.018936807,0.17226386,0
928496886066913,-0.21774685,3.7974095,9.442079,0.06963859,-0.056810424,0.1545488,0
928496894646913,-0.13878371,3.7950168,9.518648,0.080634154,-0.11178826,0.1301142,0
928496903226913,-0.11724831,3.885944,9.521041,0.103236146,-0.16982041,0.10567961,0
928496911806861,-0.17228323,4.0127635,9.341579,0.13133593,-0.21868959,0.08613193,0
928496920386809,-0.19860429,4.125226,9.107083,0.15760311,-0.2480111,0.07941242,0
928496928966861,-0.15074782,4.182654,8.922835,0.17104214,-0.25961754,0.082466744,0
928496937546809,-0.040677983,4.1611185,8.874979,0.17104214,-0.25961754,0.08613193,0
928496946126757,0.11724831,4.113262,8.913264,0.16126831,-0.24312419,0.08307761,0
928496954706757,0.28235307,4.0438704,8.913264,0.15149446,-0.21563527,0.06658426,0
928496963286757,0.40917268,3.952943,8.944371,0.14599667,-0.15577053,0.04092794,0
928496971866757,0.44027936,3.9146578,8.886943,0.14294235,-0.07147118,0.0061086477,0
928496980446705,0.40917268,3.991228,8.76491,0.14416409,-0.010995566,-0.034819294,0
928496989026705,0.29192436,4.168297,8.657232,0.14355323,0.0018325944,-0.06780599,0
928496997606653,-0.04546363,4.398008,8.413164,0.1404989,-0.0073303776,-0.083688475,0
928497006186653,-0.45224348,4.658826,8.118847,0.12950334,0.01527162,-0.07513637,0
928497014766653,-0.57427746,4.76411,8.080562,0.106290475,0.102014415,-0.03970621,0
928497023346601,-0.46181476,4.761717,8.216953,0.07941242,0.20586143,0.0073303776,0
928497031926601,-0.40917268,4.7114677,8.386844,0.062308207,0.27550003,0.04092794,0
928497040506549,-0.30867413,4.6061835,8.544769,0.055588696,0.2944368,0.060475614,0
928497049086549,-0.19621146,4.438686,8.702696,0.05986475,0.30115634,0.07391464,0
928497057666497,-0.17706887,4.2592244,8.848659,0.073303774,0.29810202,0.080634154,0
928497066246497,-0.16749759,4.1084766,8.906086,0.092851445,0.25900668,0.080634154,0
928497074826497,-0.19381863,4.0438704,8.815159,0.106290475,0.18631376,0.06963859,0
928497083406497,-0.22253251,4.1204405,8.683554,0.10690133,0.082466744,0.04459313,0
928497091986445,-0.22731815,4.2568316,8.520842,0.08429934,-0.040317077,0.014660755,0
928497100566445,-0.18185452,4.386044,8.506484,0.039095346,-0.16187917,-0.01527162,0
928497109146445,-0.14596218,4.4339004,8.616554,-0.011606431,-0.24373505,-0.041538805,0
928497117726392,-0.10049855,4.398008,8.738588,-0.049480047,-0.28344125,-0.064140804,0
928497126306392,-0.09810573,4.338187,8.839087,-0.06597339,-0.31337363,-0.08124501,0
928497134886392,-0.15314065,4.2687955,8.894122,-0.059253883,-0.33780822,-0.09346231,0
928497143466340,-0.21535404,4.237689,8.877372,-0.034208428,-0.35491243,-0.09957096,0
928497152046340,-0.2009971,4.2424746,8.834301,-0.0067195124,-0.35796675,-0.100181825,0
928497160626288,-0.148355,4.2687955,8.817552,0.022601997,-0.3500255,-0.09773836,0
928497169206288,-0.05503492,4.287938,8.810373,0.04459313,-0.32925612,-0.09468404,0
928497177786236,0.05742774,4.28076,8.846265,0.06352994,-0.29565856,-0.09407318,0
928497186366236,0.11964113,4.2520456,8.812766,0.08185588,-0.25228715,-0.10384701,0
928497194946236,0.09571291,4.2568316,8.772088,0.103236146,-0.2131918,-0.12156209,0
928497203526236,0.04546363,4.2687955,8.755338,0.11484258,-0.18692462,-0.13805544,0
928497212106184,-0.02632105,4.261617,8.750552,0.11362085,-0.17226386,-0.15149446,0
928497220686132,-0.050249275,4.2281175,8.796016,0.10079269,-0.16493349,-0.16004658,0
928497229266184,-0.031106694,4.1898327,8.894122,0.08429934,-0.15821397,-0.16982041,0
928497237846132,0.023928227,4.1754756,8.970692,0.06658426,-0.15393792,-0.18264857,0
928497246426132,0.02632105,4.1611185,8.949157,0.056199558,-0.1631009,-0.19975278,0
928497255006080,0.033499517,4.1587257,8.925228,0.04886918,-0.19547673,-0.21746786,0
928497263586080,0.031106694,4.173083,8.846265,0.04214967,-0.24190246,-0.23212862,0
928497272166028,0.031106694,4.1850467,8.738588,0.02932151,-0.29565856,-0.24312419,0
928497280746028,0.023928227,4.208975,8.678768,0.007941242,-0.34391686,-0.25045455,0
928497289326028,0.0047856453,4.254439,8.645268,-0.020158539,-0.365908,-0.25411975,0
928497297905976,-0.0023928226,4.2999024,8.673982,-0.0537561,-0.36285368,-0.25411975,0
928497306485976,-0.0023928226,4.314259,8.752945,-0.08124501,-0.34758207,-0.2535089,0
928497315065976,0.0071784677,4.2927237,8.874979,-0.100181825,-0.3243692,-0.2498437,0
928497323645924,0.02871387,4.2448673,9.01137,-0.1075122,-0.3017672,-0.24434592,0
928497332225924,0.021535404,4.1754756,9.116654,-0.10079269,-0.2828304,-0.2376264,0
928497340805872,0.0526421,4.1036906,9.157332,-0.08124501,-0.27305657,-0.23090689,0
928497349385872,0.11724831,4.06062,9.133404,-0.056810424,-0.2809978,-0.2254091,0
928497357965872,0.19860429,4.0295134,9.042477,-0.031154104,-0.30604327,-0.22296564,0
928497366545872,0.27517462,4.019942,8.922835,-0.009162972,-0.34452772,-0.22479823,0
928497375125820,0.37328035,4.005585,8.721839,0.0,-0.37934703,-0.23273948,0
928497383705820,0.46899325,4.0007997,8.544769,-0.005497783,-0.40378162,-0.24373505,0
928497392285767,0.55034924,4.0103707,8.444271,-0.02932151,-0.40866855,-0.2583958,0
928497400865767,0.6197411,4.022335,8.477771,-0.06658426,-0.38912088,-0.2773326,0
928497409445715,0.701097,4.034299,8.6548395,-0.1075122,-0.33353218,-0.30421066,0
928497418025715,0.7106683,4.007978,8.915657,-0.13805544,-0.25534147,-0.33719736,0
928497426605715,0.6221339,3.979264,9.19801,-0.15027274,-0.18203771,-0.37262753,0
928497435185663,0.46899325,3.9194436,9.41815,-0.1404989,-0.14844014,-0.40317076,0
928497443765663,0.31585258,3.871587,9.554541,-0.112399116,-0.1631009,-0.42027497,0
928497452345663,0.21296121,3.802195,9.5760765,-0.073303774,-0.2083049,-0.42394015,0
928497460925663,0.21774685,3.792624,9.487542,-0.032986697,-0.25961754,-0.41905323,0
928497469505611,0.2440679,3.842873,9.456435,-0.0042760535,-0.30421066,-0.41172287,0
928497478085611,0.27038896,3.8907297,9.406186,0.017715078,-0.32009315,-0.4092794,0
928497486665611,0.32063824,3.9194436,9.339187,0.033597562,-0.29077163,-0.41294459,0
928497495245559,0.26799613,3.9170506,9.303294,0.04214967,-0.24068072,-0.42394015,0
928497503825559,0.2105684,3.8811584,9.305687,0.043371398,-0.18509203,-0.43799004,0
928497512405507,0.09332009,3.8285162,9.288938,0.045203995,-0.14416409,-0.45203993,0
928497520985507,-0.050249275,3.7878382,9.343972,0.043982264,-0.118507765,-0.46181378,0
928497529565455,-0.15314065,3.7734814,9.367901,0.04459313,-0.103236146,-0.4648681,0
928497538145455,-0.18903299,3.8117664,9.408579,0.046425723,-0.09651663,-0.46547896,0
928497546725455,-0.23928227,3.859623,9.420543,0.05070178,-0.109344795,-0.46425724,0
928497555305455,-0.30149564,3.9290147,9.379865,0.056810424,-0.13255766,-0.4581486,0
928497563885403,-0.3589234,3.9744785,9.305687,0.06352994,-0.16493349,-0.44837475,0
928497572465403,-0.4354937,4.0151563,9.164511,0.062308207,-0.20280711,-0.43554658,0
928497581045403,-0.5168497,4.048656,9.049655,0.056199558,-0.23029602,-0.4196641,0
928497589625351,-0.59342,4.1108694,8.939586,0.043371398,-0.25045455,-0.39950556,0
928497598205351,-0.6580262,4.139583,8.865408,0.028710645,-0.26450446,-0.3744601,0
928497606785299,-0.6939186,4.1898327,8.841479,0.014660755,-0.27000225,-0.3451386,0
928497615365299,-0.70348984,4.2329035,8.807981,0.0036651888,-0.26389357,-0.3103193,0
928497623945299,-0.71306115,4.211368,8.774481,-0.0024434591,-0.24862197,-0.27122396,0
928497632525247,-0.6963114,4.1922255,8.781659,-0.0036651888,-0.23029602,-0.22968516,0
928497641105247,-0.64845496,4.1635113,8.800801,-0.0042760535,-0.21074834,-0.19120067,0
928497649685195,-0.57188463,4.132405,8.822337,0.0036651888,-0.19303326,-0.15882485,0
928497658265195,-0.4881358,4.1204405,8.836694,0.0140498895,-0.18570289,-0.13377939,0
928497666845195,-0.45942193,4.101298,8.788837,0.028710645,-0.18692462,-0.115453444,0
928497675425195,-0.46660042,4.0797625,8.666803,0.04214967,-0.18997894,-0.098960094,0
928497684005142,-0.48095736,4.082155,8.544769,0.047647454,-0.18509203,-0.08491021,0
928497692585142,-0.46181476,4.089334,8.441878,0.04214967,-0.18509203,-0.06780599,0
928497701165142,-0.4235296,4.106084,8.362915,0.026267186,-0.19058982,-0.051923506,0
928497709745090,-0.37567315,4.115655,8.30788,0.005497783,-0.19853105,-0.037262753,0
928497718325090,-0.33020952,4.0965123,8.257631,-0.021380268,-0.20891576,-0.02565632,0
928497726905038,-0.2943172,4.1204405,8.252846,-0.046425723,-0.21991132,-0.017715078,0
928497735485038,-0.29671,4.115655,8.298309,-0.067195125,-0.22113305,-0.012217295,0
928497744065038,-0.2847459,4.141976,8.370093,-0.08002329,-0.20036365,-0.0061086477,0
928497752645038,-0.27996024,4.141976,8.396415,-0.08491021,-0.16982041,0.0036651888,0
928497761224986,-0.23688944,4.130012,8.446664,-0.08124501,-0.14477496,0.018936807,0
928497769804986,-0.18664017,4.132405,8.449057,-0.07574723,-0.12889247,0.03604102,0
928497778384986,-0.13399807,4.1467614,8.477771,-0.06780599,-0.11606431,0.050090913,0
928497786964934,-0.02871387,4.1491547,8.465807,-0.06169734,-0.09834923,0.060475614,0
928497795544934,0.05503492,4.113262,8.4682,-0.05742129,-0.07208204,0.06352994,0
928497804124882,0.12203395,4.101298,8.504091,-0.056199558,-0.04459313,0.05864302,0
928497812704882,0.14117654,4.072584,8.499306,-0.05497783,-0.01527162,0.046425723,0
928497821284882,0.15553348,4.065406,8.480164,-0.05497783,0.018325943,0.031154104,0
928497829864882,0.09571291,4.0965123,8.451449,-0.056810424,0.043371398,0.017715078,0
928497838444830,0.02871387,4.1467614,8.437093,-0.06108648,0.056810424,0.008552107,0
928497847024830,-0.02871387,4.1898327,8.439486,-0.07391464,0.060475614,0.0061086477,0
928497855604778,-0.069391854,4.223332,8.489735,-0.09468404,0.055588696,0.010384701,0
928497864184726,-0.019142581,4.2257247,8.549556,-0.12095123,0.037873615,0.019547673,0
928497872764726,0.050249275,4.2329035,8.633304,-0.14844014,0.0067195124,0.027488915,0
928497881344726,0.124426775,4.2352962,8.676374,-0.16982041,-0.033597562,0.033597562,0
928497889924726,0.18903299,4.254439,8.729017,-0.18142684,-0.07086031,0.034208428,0
928497898504674,0.25124636,4.2927237,8.721839,-0.18509203,-0.08613193,0.031154104,0
928497907084674,0.28713873,4.3334017,8.740981,-0.1875355,-0.08002329,0.028099779,0
928497915664674,0.30149564,4.3669014,8.7577305,-0.19120067,-0.068416856,0.02687805,0
928497924244622,0.27756742,4.347759,8.812766,-0.1960876,-0.05986475,0.03054324,0
928497932824622,0.2656033,4.2592244,8.855837,-0.2046397,-0.04886918,0.039095346,0
928497941404622,0.27517462,4.1587257,8.963513,-0.21746786,-0.028710645,0.04703659,0
928497949984622,0.3278167,4.0797625,9.109476,-0.23090689,-0.009162972,0.051923506,0
928497958564570,0.38285163,4.048656,9.260223,-0.24068072,-0.0073303776,0.047647454,0
928497967144570,0.4139583,4.031906,9.367901,-0.24190246,-0.029932374,0.037262753,0
928497975724570,0.4235296,4.034299,9.396614,-0.23701553,-0.076358095,0.02687805,0
928497984304517,0.45702913,4.031906,9.401401,-0.22968516,-0.12889247,0.021991132,0
928497992884517,0.49292147,4.0103707,9.377472,-0.22174391,-0.1753182,0.022601997,0
928498001464517,0.57427746,3.9553359,9.317652,-0.21380267,-0.21624613,0.026267186,0
928498010044517,0.6269195,3.888337,9.224331,-0.20708317,-0.24495678,0.026267186,0
928498018624465,0.6843473,3.818945,9.128618,-0.20586143,-0.2516763,0.020158539,0
928498027204465,0.7298109,3.7830527,9.075976,-0.2131918,-0.24190246,0.0073303776,0
928498035784413,0.7298109,3.7974095,9.080762,-0.2254091,-0.22663084,-0.011606431,0
928498044364413,0.6867401,3.8333018,9.12144,-0.24190246,-0.20952661,-0.034208428,0
928498052944361,0.62931234,3.859623,9.21476,-0.25717407,-0.19181155,-0.053145237,0
928498061524361,0.53359944,3.8572302,9.35833,-0.26633704,-0.17043127,-0.06536253,0
928498070104361,0.4546363,3.8261235,9.475577,-0.2687805,-0.14966187,-0.06902772,0
928498078684361,0.38524446,3.7567315,9.54497,-0.2602284,-0.15393792,-0.06169734,0
928498087264309,0.3804588,3.641876,9.559326,-0.24434592,-0.194255,-0.045203995,0
928498095844309,0.4331009,3.5126636,9.480363,-0.22785257,-0.2535089,-0.02932151,0
928498104424309,0.51445687,3.4456646,9.391829,-0.21135922,-0.3158171,-0.0140498895,0
928498113004257,0.6221339,3.3882368,9.272188,-0.20525056,-0.3677406,-0.0048869182,0
928498121584257,0.70348984,3.35713,9.078369,-0.21074834,-0.4147772,-0.0042760535,0
928498130164257,0.79441714,3.359523,8.9348,-0.2357938,-0.46608981,-0.013439025,0
928498138744205,0.849452,3.359523,8.834301,-0.27672175,-0.5210677,-0.03176497,0
928498147324205,0.8542377,3.3667014,8.7673025,-0.32864526,-0.569326,-0.0537561,0
928498155904153,0.83748794,3.3810585,8.769695,-0.38545567,-0.5876519,-0.07391464,0
928498164484153,0.8542377,3.3714871,8.772088,-0.43737918,-0.5638282,-0.089797124,0
928498173064153,0.9068798,3.359523,8.781659,-0.4801397,-0.51801336,-0.09773836,0
928498181644153,0.95473623,3.3116665,8.817552,-0.5076286,-0.4630355,-0.098960094,0
928498190224101,1.0145568,3.2638102,8.841479,-0.5229002,-0.40866855,-0.09407318,0
928498198804101,1.0552348,3.2039895,8.827123,-0.53145236,-0.37690356,-0.08552107,0
928498207384101,1.0935199,3.1441689,8.7577305,-0.5406153,-0.3903426,-0.073303774,0
928498215964049,1.1796615,3.089134,8.707481,-0.5577195,-0.44654214,-0.05864302,0
928498224544049,1.2993027,3.0460632,8.810373,-0.5809324,-0.51068294,-0.046425723,0
928498233123997,1.4333007,2.9671001,9.032906,-0.5998692,-0.53328496,-0.040317077,0
928498241703997,1.6007984,2.8259234,9.315259,-0.6041453,-0.5167916,-0.045203995,0
928498250283997,1.753939,2.6344976,9.573684,-0.5858193,-0.49541134,-0.06352994,0
928498258863997,1.8831514,2.4502504,9.736395,-0.54366964,-0.51251554,-0.09529491,0
928498267443945,1.9501505,2.333002,9.820144,-0.48136145,-0.5705477,-0.13988803,0
928498276023945,1.9716859,2.3018954,9.772287,-0.4074468,-0.6401863,-0.194255,0
928498284603945,1.9453648,2.3353949,9.643075,-0.3365865,-0.68111426,-0.2480111,0
928498293183945,1.9118652,2.4335005,9.406186,-0.28221953,-0.6853903,-0.2944368,0
928498301763892,1.875973,2.524428,9.186047,-0.252898,-0.67195123,-0.32681265,0
928498310343892,1.8640088,2.57707,9.042477,-0.2547306,-0.66095567,-0.34086254,0
928498318923892,1.8520447,2.5818555,8.927621,-0.2828304,-0.65851223,-0.34086254,0
928498327503840,1.8711873,2.536392,8.891729,-0.32864526,-0.66034484,-0.32925612,0
928498336083840,1.9764715,2.4885356,8.941978,-0.38240135,-0.66339916,-0.31337363,0
928498344663788,2.1224337,2.4311078,9.037691,-0.43127054,-0.66156656,-0.29688028,0
928498353243788,2.2755744,2.3665016,9.135797,-0.4630355,-0.6493493,-0.284663,0
928498361823788,2.4358935,2.3186452,9.267402,-0.47647452,-0.61147565,-0.2828304,0
928498370403788,2.589034,2.2995026,9.355937,-0.46914417,-0.5528326,-0.29260424,0
928498378983788,2.6608188,2.2971098,9.379865,-0.4422661,-0.4819723,-0.31276277,0
928498387563736,2.6895328,2.3138595,9.432507,-0.4074468,-0.40866855,-0.33719736,0
928498396143736,2.6249263,2.3353949,9.485149,-0.3695732,-0.32253662,-0.36163196,0
928498404723684,2.5124638,2.3545375,9.549755,-0.32864526,-0.216857,-0.37873617,0
928498413303684,2.3306093,2.376073,9.626326,-0.29016078,-0.12034036,-0.38545567,0
928498421883684,2.1343977,2.3665016,9.734002,-0.252898,-0.05742129,-0.3744601,0
928498430463632,1.98365,2.3784657,9.853643,-0.21930045,-0.028099779,-0.3506364,0
928498439043632,1.9453648,2.3808584,9.958928,-0.18203771,-0.020158539,-0.3188714,0
928498447623580,1.9597218,2.347359,9.9756775,-0.14172062,-0.034208428,-0.28832817,0
928498456203632,2.0171494,2.3186452,9.868001,-0.10079269,-0.062308207,-0.26755878,0
928498464783580,2.0889342,2.2779672,9.68136,-0.062308207,-0.08613193,-0.25778493,0
928498473363580,2.225325,2.268396,9.504292,-0.03054324,-0.077579826,-0.2583958,0
928498481943528,2.3401806,2.2899313,9.35833,-0.008552107,-0.036651887,-0.26939136,0
928498490523528,2.4502504,2.2947168,9.236296,0.0097738365,0.03054324,-0.29016078,0
928498499103528,2.4861426,2.306681,9.133404,0.02687805,0.108123064,-0.32009315,0
928498507683528,2.4909284,2.2995026,9.064013,0.04214967,0.17348559,-0.35430157,0
928498516263476,2.4646072,2.3018954,8.949157,0.045814857,0.21868959,-0.38606653,0
928498524843476,2.4119651,2.3282163,8.851051,0.041538805,0.24923283,-0.4166098,0
928498533423476,2.292324,2.3545375,8.724232,0.02565632,0.2535089,-0.44532043,0
928498542003424,2.2157538,2.3569303,8.618947,-0.0024434591,0.23701553,-0.46975502,0
928498550583424,2.1822543,2.3114667,8.49452,-0.041538805,0.20097451,-0.48991355,0
928498559163424,2.1966112,2.2085752,8.444271,-0.08613193,0.16859868,-0.50885034,0
928498567743372,2.292324,2.0697916,8.4347,-0.12400555,0.194255,-0.5338958,0
928498576323372,2.5004997,1.9477576,8.554341,-0.15149446,0.28038692,-0.5723803,0
928498584903372,2.6943183,1.8735801,8.690732,-0.15699224,0.39645123,-0.637132,0
928498593483320,2.7637103,1.8640088,8.805588,-0.14110976,0.524122,-0.72570735,0
928498602063320,2.6464617,1.942972,8.815159,-0.10995566,0.641408,-0.8271109,0
928498610643320,2.5196424,1.9573289,8.755338,-0.08552107,0.72692907,-0.92546016,0
928498619223320,2.3688943,1.9214365,8.62134,-0.08002329,0.7470876,-1.0201442,0
928498627803267,2.1224337,1.8951155,8.477771,-0.10567961,0.6860011,-1.1062762,0
928498636383267,1.9238294,1.8735801,8.444271,-0.17409647,0.59192795,-1.1783582,0
928498644963267,1.8520447,1.8376877,8.523234,-0.27977607,0.4721985,-1.2394446,0
928498653543267,1.8257236,1.7563318,8.635697,-0.40683594,0.29688028,-1.2907573,0
928498662123215,1.8664017,1.6510476,8.752945,-0.537561,0.073303774,-1.3384048,0
928498670703215,1.9669002,1.5529419,8.769695,-0.6536253,-0.1802051,-1.3842196,0
928498679283215,2.1415763,1.5026926,8.700303,-0.7562506,-0.4392118,-1.432478,0
928498687863163,2.2636101,1.5337993,8.484949,-0.844826,-0.68050337,-1.4837905,0
928498696443163,2.2660031,1.6630118,8.300702,-0.9279036,-0.8796453,-1.5289946,0
928498705023163,2.1080768,1.7682959,8.212168,-1.007316,-1.0060943,-1.5522074,0
928498713603163,1.8664017,1.7922242,8.252846,-1.0879502,-1.05252,-1.5497639,0
928498722183111,1.6414764,1.7706888,8.5016985,-1.1606431,-1.0213659,-1.5234967,0
928498730763111,1.5553347,1.6606189,8.973084,-1.210734,-0.90774506,-1.4703516,0
928498739343111,1.6438692,1.4715859,9.4636135,-1.2253947,-0.74220073,-1.3994912,0
928498747923059,1.8376877,1.3471591,9.781859,-1.206458,-0.60109097,-1.3335178,0
928498756503059,2.0985055,1.3351951,9.911072,-1.1581997,-0.5082395,-1.2895355,0
928498765083059,2.455036,1.3112668,9.820144,-1.0934479,-0.4575377,-1.2626575,0
928498773663007,2.696711,1.2562319,9.626326,-1.0348049,-0.43554658,-1.2516619,0
928498782243007,2.7900312,1.1533405,9.425328,-0.9926553,-0.40317076,-1.2528837,0
928498790822955,2.725425,1.0695918,9.276974,-0.97555107,-0.3451386,-1.2620466,0
928498799403007,2.617748,0.89013004,9.186047,-0.9926553,-0.29688028,-1.2718204,0
928498807982955,2.4861426,0.60777694,9.083155,-1.047633,-0.31459537,-1.2858703,0
928498816562955,2.254039,0.4761717,9.085547,-1.1313215,-0.3744601,-1.3194679,0
928498825142955,2.0195422,0.4761717,9.21476,-1.2308925,-0.4838049,-1.3524547,0
928498833722903,1.7874385,0.4761717,9.296116,-1.3298526,-0.605367,-1.3775,0
928498842302903,1.6821543,0.4235296,9.456435,-1.4263693,-0.7147118,-1.373224,0
928498850882903,1.6295122,0.33499518,9.41815,-1.5100577,-0.83505213,-1.3494003,0
928498859462851,1.5696917,0.27756742,9.489935,-1.5790855,-0.92362756,-1.3194679,0
928498868042851,1.5314065,0.22013968,9.597611,-1.6322306,-0.91996235,-1.2754856,0
928498876622851,1.5984055,0.02871387,9.963714,-1.6652174,-0.77579826,-1.2143992,0
928498885202851,1.6223338,-0.05503492,10.559526,-1.657887,-0.49663305,-1.1759146,0
928498893782799,1.6151553,-0.16271193,11.093125,-1.5864159,-0.22296564,-1.1563671,0
928498902362799,1.5768701,-0.29192436,11.437693,-1.4660754,-0.06902772,-1.1496475,0
928498910942799,1.6079768,-0.4019942,11.600404,-1.3158027,-0.036651887,-1.1435388,0
928498919522747,1.6797615,-0.65084773,10.985449,-1.1533127,-0.112399116,-1.1392628,0
928498928102747,1.8520447,-0.782453,10.006784,-1.0586287,-0.22846343,-1.1447606,0
928498936682747,2.0434706,-0.87338024,9.336794,-1.0946697,-0.38851,-1.1527019,0
928498945262747,2.012364,-1.1533405,9.052048,-1.206458,-0.5998692,-1.1844668,0
928498953842695,1.8448663,-1.2801601,9.406186,-1.3591741,-0.7648027,-1.2504402,0
928498962422695,1.7156538,-1.1653047,10.24846,-1.4746276,-0.8167262,-1.301142,0
928498971002695,1.6534405,-0.96430755,11.191232,-1.4923427,-0.7232639,-1.3023638,0
928498979582642,1.5337993,-0.8039884,11.897114,-1.3848305,-0.5210677,-1.2822052,0
928498988162642,1.3615161,-0.6771688,12.251252,-1.1777472,-0.27427828,-1.2522728,0
928498996742642,1.134198,-0.65084773,12.093326,-0.9150754,-0.0537561,-1.2113448,0
928499005322642,0.9403793,-0.6867401,11.595618,-0.6530144,0.13561198,-1.1594213,0
928499013902590,0.89491564,-0.74416786,10.999805,-0.45142907,0.2913825,-1.0940589,0
928499022482590,0.9092726,-0.7800602,10.420743,-0.33231044,0.36163196,-1.0323615,0
928499031062590,0.9762716,-0.7609176,9.915857,-0.29871288,0.32559094,-0.9767728,0
928499039642538,1.0432707,-0.7920243,9.403793,-0.33964083,0.21197008,-0.9279036,0
928499048222538,1.146162,-0.863809,9.064013,-0.44165525,0.03848448,-0.8833105,0
928499056802538,1.2705889,-0.96430755,8.810373,-0.582765,-0.16920954,-0.84054995,0
928499065382538,1.402194,-1.0169497,8.774481,-0.731816,-0.3573559,-0.80695236,0
928499073962486,1.4763715,-1.0648061,8.913264,-0.8686497,-0.48136145,-0.7800743,0
928499082542486,1.4261223,-1.105484,9.221938,-0.97249675,-0.5387827,-0.76235926,0
928499091122486,1.2921243,-1.0600204,9.6071825,-1.0341941,-0.54183704,-0.7476985,0
928499099702486,1.2179468,-0.9619147,10.052248,-1.0464114,-0.5009091,-0.7202096,0
928499108282434,1.1844472,-0.8805587,10.547563,-1.0048726,-0.40561423,-0.6725621,0
928499116862434,1.2155539,-0.8135597,11.054841,-0.9114103,-0.252898,-0.61086476,0
928499125442434,1.2203395,-0.83030945,11.497513,-0.7684679,-0.07086031,-0.5412262,0
928499134022382,1.2059826,-0.8877372,11.866008,-0.5894845,0.12400555,-0.46608981,0
928499142602382,1.2179468,-1.0049855,11.942577,-0.3817905,0.2877173,-0.3933969,0
928499151182382,1.308874,-1.1724831,11.643475,-0.16004658,0.39767298,-0.33597562,0
928499159762330,1.4476577,-1.3232309,11.009377,0.036651887,0.4477639,-0.29565856,0
928499168342330,1.6510476,-1.3830515,10.267602,0.16737695,0.4386009,-0.26755878,0
928499176922330,1.8305093,-1.3998013,9.585648,0.20586143,0.3921752,-0.25228715,0
928499185502330,1.942972,-1.4285151,9.142975,0.16554436,0.31826055,-0.24862197,0
928499194082330,2.024328,-1.4524434,8.95155,0.06597339,0.22174391,-0.2516763,0
928499202662278,2.1248264,-1.4380864,8.927621,-0.05497783,0.10873393,-0.25534147,0
928499211242278,2.184647,-1.4237294,9.157332,-0.17104214,0.020769402,-0.25961754,0
928499219822278,2.1918256,-1.4261223,9.518648,-0.25900668,-0.015882485,-0.26755878,0
928499228402226,2.1511476,-1.4069797,9.95175,-0.2999346,-0.0073303776,-0.27550003,0
928499236982226,2.0793629,-1.3710874,10.353744,-0.29077163,0.03054324,-0.27855435,0
928499245562226,2.0147567,-1.3256238,10.667203,-0.23640467,0.098960094,-0.2761109,0
928499254142226,1.9262222,-1.3184453,10.846665,-0.14660755,0.17104214,-0.26633704,0
928499262722174,1.8544376,-1.3519448,10.822737,-0.043371398,0.22357652,-0.2516763,0
928499271302174,1.861616,-1.3806586,10.624132,0.055588696,0.24923283,-0.23212862,0
928499279882174,1.9573289,-1.3543376,10.363315,0.13194679,0.25961754,-0.2131918,0
928499288462122,2.0386848,-1.3256238,10.116854,0.18203771,0.25778493,-0.19975278,0
928499297042122,2.1176481,-1.294517,9.88475,0.21074834,0.25411975,-0.1924224,0
928499305622122,2.1487548,-1.2897314,9.690931,0.22052218,0.24862197,-0.19120067,0
928499314202122,2.143969,-1.2921243,9.470792,0.21380267,0.22663084,-0.194255,0
928499322782070,2.1511476,-1.227518,9.396614,0.18325943,0.19058982,-0.19975278,0
928499331362070,2.0985055,-1.1772687,9.30808,0.14905101,0.14844014,-0.21013749,0
928499339942070,1.995614,-1.0959128,9.250652,0.116675176,0.12278382,-0.21807873,0
928499348522070,1.9190438,-0.99302137,9.305687,0.08613193,0.118507765,-0.21624613,0
928499357102017,1.8711873,-0.8757731,9.379865,0.068416856,0.118507765,-0.19975278,0
928499365682017,1.861616,-0.7920243,9.504292,0.064140804,0.13439025,-0.17409647,0
928499374261965,1.8376877,-0.7537391,9.631111,0.07696896,0.16737695,-0.14355323,0
928499382841965,1.8161523,-0.7752745,9.705289,0.10262528,0.20219624,-0.10873393,0
928499391421965,1.8089739,-0.8255238,9.734002,0.14110976,0.23273948,-0.07574723,0
928499400001965,1.8305093,-0.8805587,9.662218,0.18142684,0.25411975,-0.047647454,0
928499408581965,1.8855443,-0.8997013,9.540184,0.21258095,0.25534147,-0.022601997,0
928499417161913,1.942972,-0.86859465,9.458828,0.22052218,0.23640467,0.0012217296,0
928499425741913,2.0147567,-0.8757731,9.420543,0.2150244,0.20891576,0.020158539,0
928499434321913,2.07697,-0.930808,9.437292,0.20158538,0.18448116,0.035430156,0
928499442901913,2.1535404,-0.9762716,9.49472,0.18936808,0.1594357,0.04459313,0
928499451481861,2.2277179,-0.9954142,9.554541,0.18570289,0.14355323,0.047647454,0
928499460061861,2.2707887,-1.0001999,9.573684,0.18875721,0.13561198,0.041538805,0
928499468641861,2.268396,-1.0049855,9.568898,0.19547673,0.1301142,0.02932151,0
928499477221861,2.2468605,-0.9882358,9.540184,0.20097451,0.116675176,0.012217295,0
928499485801861,2.213361,-0.95712906,9.5665045,0.20036365,0.10567961,-0.0024434591,0
928499494381809,2.1655045,-0.93559366,9.60479,0.20036365,0.09468404,-0.0140498895,0
928499502961809,2.143969,-0.9379865,9.65504,0.19853105,0.08124501,-0.023823727,0
928499511541809,2.132005,-0.9451649,9.7196455,0.20097451,0.062308207,-0.032375835,0
928499520121757,2.120041,-0.9523434,9.700503,0.20586143,0.04459313,-0.041538805,0
928499528701757,2.0937197,-0.9284152,9.686146,0.21258095,0.031154104,-0.051923506,0
928499537281757,2.053042,-0.89491564,9.676575,0.216857,0.02687805,-0.064140804,0
928499545861757,2.0027926,-0.85902333,9.683753,0.21930045,0.02565632,-0.074525505,0
928499554441705,1.9740787,-0.8279166,9.671789,0.22113305,0.023212861,-0.080634154,0
928499563021705,1.9334008,-0.79441714,9.662218,0.21991132,0.010384701,-0.08613193,0
928499571601705,1.8951155,-0.78723866,9.626326,0.21930045,-0.0048869182,-0.09224058,0
928499580181705,1.8496519,-0.7680961,9.609575,0.2131918,-0.012217295,-0.09651663,0
928499588761705,1.7874385,-0.7537391,9.68136,0.20586143,-0.014660755,-0.102014415,0
928499597341653,1.7324036,-0.7082755,9.74836,0.2046397,-0.008552107,-0.106290475,0
928499605921653,1.672583,-0.65084773,9.805787,0.20769402,0.0,-0.10995566,0
928499614501601,1.6007984,-0.60059845,9.8727865,0.21380267,0.0024434591,-0.10873393,0
928499623081601,1.5337993,-0.5455636,9.925428,0.22174391,-0.0018325944,-0.102014415,0
928499631661601,1.4955142,-0.5288138,9.954143,0.23090689,-0.011606431,-0.09040799,0
928499640241601,1.4380864,-0.5288138,9.920643,0.24312419,-0.027488915,-0.07819069,0
928499648821549,1.4189439,-0.5024927,9.851251,0.252898,-0.04459313,-0.06169734,0
928499657401549,1.4404793,-0.47856453,9.779466,0.25717407,-0.05497783,-0.042760536,0
928499665981549,1.4787644,-0.45224348,9.722038,0.2547306,-0.060475614,-0.021991132,0
928499674561549,1.5266209,-0.4546363,9.705289,0.25045455,-0.06597339,-0.0030543238,0
928499683141549,1.538585,-0.47138608,9.700503,0.24556763,-0.07208204,0.013439025,0
928499691721497,1.5194423,-0.50009996,9.62154,0.23884813,-0.076358095,0.027488915,0
928499700301497,1.5290136,-0.5599205,9.583255,0.2272417,-0.08491021,0.043371398,0
928499708881497,1.5314065,-0.59581286,9.578469,0.21258095,-0.091018856,0.059253883,0
928499717461497,1.5696917,-0.63888365,9.611969,0.194255,-0.09407318,0.074525505,0
928499726041497,1.6103697,-0.68195444,9.688539,0.17898338,-0.091018856,0.08857539,0
928499734621445,1.6438692,-0.70348984,9.779466,0.17043127,-0.083688475,0.09957096,0
928499743201445,1.68694,-0.7609176,9.860822,0.16859868,-0.07513637,0.109344795,0
928499751781445,1.7635103,-0.81595254,9.894321,0.171653,-0.07024945,0.11911863,0
928499760361392,1.8424734,-0.8853444,9.870394,0.17959425,-0.06169734,0.124616414,0
928499768941392,1.9262222,-0.95473623,9.803394,0.18509203,-0.055588696,0.124616414,0
928499777521392,2.0027926,-1.0241281,9.750752,0.1838703,-0.049480047,0.11911863,0
928499786101392,2.0745773,-1.0863415,9.724431,0.17837252,-0.04092794,0.10567961,0
928499794681340,2.1008983,-1.1557333,9.693324,0.16982041,-0.028099779,0.08613193,0
928499803261340,2.1415763,-1.1964114,9.683753,0.16249003,-0.012217295,0.062308207,0
928499811841340,2.1774685,-1.2107682,9.671789,0.15515965,0.0036651888,0.033597562,0
928499820421340,2.1942184,-1.2418749,9.671789,0.15027274,0.02565632,0.0,0
928499829001340,2.1702902,-1.2442678,9.726824,0.14660755,0.05253437,-0.037262753,0
928499837581288,2.1176481,-1.2370893,9.79143,0.14905101,0.08552107,-0.07880156,0
928499846161288,2.009971,-1.1892328,9.793823,0.1594357,0.11362085,-0.12034036,0
928499854741288,1.8951155,-1.1006985,9.777073,0.17348559,0.13805544,-0.1594357,0
928499863321288,1.7730815,-0.97866446,9.71486,0.18875721,0.16004658,-0.19120067,0
928499871901288,1.6247265,-0.89013004,9.643075,0.19914192,0.17959425,-0.21441354,0
928499880481236,1.4787644,-0.8039884,9.602397,0.20586143,0.19364414,-0.23029602,0
928499889061236,1.402194,-0.715454,9.568898,0.20647229,0.20097451,-0.2357938,0
928499897641236,1.3399807,-0.65324056,9.590433,0.20402883,0.20280711,-0.23396121,0
928499906221184,1.2897314,-0.5838487,9.592826,0.20402883,0.19975278,-0.23212862,0
928499914801184,1.2203395,-0.50488555,9.580862,0.20708317,0.18570289,-0.23090689,0
928499923381184,1.1700903,-0.4354937,9.530613,0.20952661,0.16249003,-0.2272417,0
928499931961184,1.1222339,-0.33499518,9.487542,0.2083049,0.13622284,-0.22052218,0
928499940541184,1.0887343,-0.22492532,9.468399,0.20525056,0.108123064,-0.21135922,0
928499949121184,1.052842,-0.13399807,9.432507,0.20036365,0.07880156,-0.20219624,0
928499957701132,1.0001999,-0.0526421,9.367901,0.19486587,0.048258316,-0.1875355,0
928499966281132,0.9619147,0.047856454,9.348758,0.18814635,0.020769402,-0.16798781,0
928499974861132,0.9667004,0.14117654,9.38465,0.18142684,0.0073303776,-0.14294235,0
928499983441132,0.9619147,0.20578274,9.442079,0.17898338,0.0024434591,-0.11300998,0
928499992021080,0.9451649,0.2536392,9.420543,0.18142684,-0.011606431,-0.082466744,0
928500000601080,0.9595219,0.2943172,9.363115,0.18509203,-0.034819294,-0.049480047,0
928500009181080,0.9954142,0.35653058,9.303294,0.1875355,-0.05742129,-0.014660755,0
928500017761080,1.0336994,0.4139583,9.255438,0.18570289,-0.073303774,0.023212861,0
928500026341080,1.105484,0.4642076,9.2793665,0.17776164,-0.08857539,0.06108648,0
928500034921028,1.1700903,0.4881358,9.303294,0.16920954,-0.100181825,0.102014415,0
928500043501028,1.2705889,0.46181476,9.3200445,0.16126831,-0.115453444,0.13988803,0
928500052081028,1.3686945,0.45702913,9.298509,0.15515965,-0.14477496,0.17409647,0
928500060661028,1.4883357,0.44745782,9.236296,0.14599667,-0.171653,0.20341797,0
928500069240976,1.6223338,0.44027936,9.224331,0.12950334,-0.18875721,0.2290743,0
928500077820976,1.7467605,0.39720857,9.209974,0.112399116,-0.20708317,0.24862197,0
928500086400976,1.8496519,0.36370903,9.190832,0.09529491,-0.22296564,0.2614501,0
928500094980976,1.9310079,0.35174492,9.171689,0.077579826,-0.22846343,0.2687805,0
928500103560924,2.0267208,0.33738798,9.15494,0.05864302,-0.22418737,0.27244568,0
928500112140924,2.1080768,0.30867413,9.236296,0.039095346,-0.21624613,0.27244568,0
928500120720924,2.1535404,0.29192436,9.2793665,0.021991132,-0.20708317,0.26755878,0
928500129300924,2.1655045,0.29192436,9.365508,0.0073303776,-0.20158538,0.25900668,0
928500137880924,2.1966112,0.3062813,9.439685,-0.0048869182,-0.19730933,0.252898,0
928500146460872,2.2301106,0.31585258,9.501899,-0.01282816,-0.19792019,0.2480111,0
928500155040872,2.2731814,0.31345975,9.51147,-0.0140498895,-0.19792019,0.24251331,0
928500163620872,2.321038,0.2943172,9.504292,-0.0140498895,-0.19486587,0.23518294,0
928500172200872,2.3425734,0.27996024,9.504292,-0.015882485,-0.19058982,0.22601996,0
928500180780872,2.3688943,0.27038896,9.475577,-0.019547673,-0.18264857,0.21380267,0
928500189360872,2.3904297,0.26799613,9.492328,-0.02565632,-0.16920954,0.20158538,0
928500197940820,2.4143581,0.2727818,9.533006,-0.032986697,-0.15027274,0.19181155,0
928500206520820,2.4502504,0.24885355,9.597611,-0.040317077,-0.13561198,0.18081598,0
928500215100820,2.507678,0.22492532,9.688539,-0.042760536,-0.12278382,0.16676609,0
928500223680820,2.5531418,0.2009971,9.745967,-0.03848448,-0.108123064,0.14966187,0
928500232260767,2.5507488,0.20578274,9.779466,-0.027488915,-0.091018856,0.12705988,0
928500240840767,2.5004997,0.22253251,9.755538,-0.016493348,-0.07574723,0.10079269,0
928500249420767,2.4191437,0.22971097,9.772287,-0.0061086477,-0.059253883,0.07574723,0
928500258000767,2.3114667,0.25124636,9.750752,0.0006108648,-0.039095346,0.055588696,0
928500266580767,2.201397,0.25603202,9.700503,0.0036651888,-0.02443459,0.04214967,0
928500275160715,2.1224337,0.25842485,9.693324,0.0,-0.014660755,0.03604102,0
928500283740715,2.024328,0.25842485,9.755538,-0.010995566,-0.0006108648,0.037873615,0
928500292320715,1.9381863,0.23928227,9.856036,-0.021380268,0.018325943,0.043371398,0
928500300900715,1.8855443,0.19860429,9.992428,-0.02687805,0.04214967,0.051923506,0
928500309480715,1.8520447,0.15074782,10.10489,-0.025045456,0.067195125,0.06536253,0
928500318060663,1.8281165,0.11485548,10.224531,-0.015882485,0.091629714,0.07574723,0
928500326640663,1.8161523,0.086141616,10.310673,0.0,0.10690133,0.08429934,0
928500335220663,1.7970098,0.076570325,10.363315,0.02443459,0.1075122,0.089797124,0
928500343800611,1.7946169,0.086141616,10.394422,0.051923506,0.100181825,0.09224058,0
928500352380611,1.8305093,0.1268196,10.411171,0.08124501,0.08735366,0.0971275,0
928500360960611,1.8448663,0.14356937,10.351351,0.11423171,0.062308207,0.09957096,0
928500369540611,1.8089739,0.1268196,10.191031,0.14477496,0.020769402,0.09957096,0
928500378120611,1.7730815,0.1363909,9.997213,0.16493349,-0.028710645,0.09834923,0
928500386700611,1.7324036,0.18664017,9.777073,0.17104214,-0.07391464,0.09834923,0
928500395280559,1.7012969,0.26081768,9.597611,0.16493349,-0.10873393,0.102014415,0
928500403860559,1.6582261,0.3182454,9.482756,0.1508836,-0.12828161,0.11117739,0
928500412440559,1.6438692,0.36131623,9.45165,0.13194679,-0.12583815,0.12522727,0
928500421020559,1.6438692,0.3804588,9.473185,0.11911863,-0.10445788,0.14477496,0
928500429600559,1.6510476,0.40677986,9.499506,0.11606431,-0.07086031,0.16615522,0
928500438180507,1.68694,0.43788654,9.537791,0.1197295,-0.021380268,0.19058982,0
928500446760507,1.7228323,0.43070808,9.5665045,0.12950334,0.033597562,0.21197008,0
928500455340507,1.7682959,0.42592242,9.597611,0.1423315,0.086742796,0.23396121,0
928500463920507,1.8281165,0.3900301,9.60479,0.15149446,0.13377939,0.252898,0
928500472500507,1.8640088,0.35653058,9.68136,0.15760311,0.17653993,0.26816964,0
928500481080507,1.8831514,0.33738798,9.738789,0.16554436,0.22296564,0.2761109,0
928500489660455,1.8424734,0.33260235,9.757931,0.1753182,0.2669479,0.2791652,0
928500498240455,1.7802601,0.3493521,9.769895,0.18081598,0.30298892,0.28344125,0
928500506820455,1.7204394,0.37088752,9.839287,0.17837252,0.3243692,0.29199335,0
928500515400455,1.6965113,0.39960137,9.970892,0.171653,0.33414304,0.30604327,0
928500523980455,1.7012969,0.3900301,10.092926,0.16982041,0.3414734,0.32192573,0
928500532560403,1.7371893,0.35653058,10.238888,0.1802051,0.34025168,0.3347539,0
928500541140403,1.7802601,0.3589234,10.298709,0.19975278,0.32681265,0.34025168,0
928500549720403,1.7922242,0.4019942,10.284351,0.2254091,0.30726498,0.3420843,0
928500558300403,1.7754744,0.44027936,10.202995,0.25534147,0.2791652,0.33964083,0
928500566880403,1.7300107,0.46660042,10.068997,0.27855435,0.23457208,0.3365865,0
928500575460351,1.7084754,0.52163535,9.875179,0.29016078,0.1753182,0.33780822,0
928500584040351,1.7036897,0.5288138,9.745967,0.28710645,0.11300998,0.343306,0
928500592620351,1.68694,0.5455636,9.68136,0.27550003,0.05986475,0.3506364,0
928500601200299,1.6917256,0.526421,9.647861,0.26328272,0.017715078,0.35857764,0
928500609780351,1.7108682,0.54317075,9.616755,0.25534147,-0.009162972,0.36651886,0
928500618360299,1.7084754,0.56470615,9.633504,0.25411975,-0.023823727,0.37323838,0
928500626940299,1.6917256,0.5838487,9.58804,0.25717407,-0.020158539,0.38117963,0
928500635520299,1.6941184,0.59342,9.533006,0.26511532,-0.0042760535,0.3933969,0
928500644100299,1.7084754,0.57188463,9.49472,0.27122396,0.02687805,0.40989026,0
928500652680299,1.7467605,0.53359944,9.509077,0.27550003,0.06597339,0.42821622,0
928500661260247,1.7515461,0.4761717,9.49472,0.28038692,0.10506874,0.4422661,0
928500669840247,1.727618,0.4546363,9.523434,0.2828304,0.13805544,0.45203993,0
928500678420247,1.7156538,0.4354937,9.568898,0.28221953,0.15760311,0.46059203,0
928500687000247,1.7156538,0.4235296,9.6071825,0.27977607,0.16126831,0.47097674,0
928500695580195,1.7252251,0.38763726,9.662218,0.27244568,0.14966187,0.4838049,0
928500704160247,1.7587247,0.37088752,9.753145,0.26450446,0.12889247,0.49480048,0
928500712740247,1.7659031,0.3493521,9.810573,0.262061,0.108123064,0.5033526,0
928500721320195,1.7778672,0.3493521,9.851251,0.26267186,0.08124501,0.50885034,0
928500729900195,1.7443677,0.35413775,9.899107,0.26511532,0.043982264,0.51068294,0
928500738480195,1.6654046,0.4235296,10.004392,0.26939136,0.0024434591,0.51068294,0
928500747060142,1.5840486,0.4761717,10.0881405,0.2773326,-0.03970621,0.51312643,0
928500755640195,1.5553347,0.5168497,10.1288185,0.29749113,-0.077579826,0.524122,0
928500764220142,1.5577276,0.53599226,10.066605,0.32681265,-0.10873393,0.5412262,0
928500772800142,1.5768701,0.56470615,9.925428,0.35979936,-0.12828161,0.560163,0
928500781380142,1.6247265,0.59581286,9.753145,0.3866774,-0.12950334,0.5809324,0
928500789960142,1.6965113,0.57906306,9.662218,0.40378162,-0.11362085,0.60109097,0
928500798540142,1.7228323,0.58624154,9.628718,0.41355544,-0.08002329,0.6175843,0
928500807120090,1.713261,0.5694918,9.729217,0.42027497,-0.039095346,0.63041246,0
928500815700090,1.6414764,0.57906306,10.052248,0.433714,0.0140498895,0.6365211,0
928500824280090,1.4763715,0.6436693,10.49492,0.46731156,0.07208204,0.6401863,0
928500832860090,1.2370893,0.7728817,10.925629,0.52656543,0.12583815,0.6530144,0
928500841440090,1.0456635,0.9523434,11.239088,0.6139191,0.16371176,0.6847794,0
928500850020090,0.930808,1.1006985,11.389835,0.7165444,0.18631376,0.7391464,0
928500858600090,0.91405827,1.1820544,11.3683,0.8307761,0.20891576,0.8173371,0
928500867180038,1.0408778,1.2011969,11.097912,0.94256437,0.23396121,0.90774506,0
928500875760038,1.2849457,1.1724831,10.700703,1.0396918,0.2614501,0.99815303,0
928500884340038,1.5026926,1.134198,10.3441725,1.102611,0.29871288,1.070846,0
928500892920038,1.6749759,1.1485549,10.140782,1.1288781,0.34391686,1.11605,0
928500901499986,1.7419748,1.2107682,9.906285,1.1319324,0.36407542,1.1447606,0
928500910079986,1.753939,1.2370893,9.712467,1.1105522,0.35613418,1.1667517,0
928500918659986,1.7874385,1.2849457,9.693324,1.0653481,0.343306,1.1856885,0
928500927239986,1.8927227,1.294517,9.757931,1.0128138,0.31337363,1.201571,0
928500935819986,2.0147567,1.2634103,9.860822,0.9645555,0.26816964,1.2076796,0
928500944399986,2.036292,1.2107682,10.030712,0.9309579,0.23335035,1.1954623,0
928500952979934,1.9788643,1.1964114,10.243673,0.9144646,0.23212862,1.1649191,0
928500961559986,1.9597218,1.2059826,10.430314,0.9175189,0.25534147,1.1270455,0
928500970139934,1.9597218,1.3256238,10.583454,0.944397,0.2669479,1.0903937,0
928500978719934,2.0003998,1.4644074,10.650454,0.9908227,0.27855435,1.0561852,0
928500987299934,2.1248264,1.6606189,10.645668,1.0512983,0.30604327,1.0244203,0
928500995879934,2.3042881,1.8783658,10.573883,1.1197151,0.34574947,1.0005965,0
928501004459934,2.495714,1.9549361,10.30828,1.1856885,0.38973173,0.9786054,0
928501013039934,2.6105695,1.9334008,9.88475,1.2284491,0.4062251,0.94134265,0
928501021619882,2.6273193,1.8831514,9.432507,1.2321143,0.38545567,0.88514304,0
928501030199882,2.5746772,1.8376877,9.056833,1.1917971,0.33353218,0.8167262,0
928501038779882,2.4263222,1.8185452,8.879765,1.1148282,0.27550003,0.7367029,0
928501047359830,2.158326,1.9884356,8.99462,1.0170898,0.23335035,0.6511819,0
928501055939830,1.9453648,2.2444677,9.437292,0.92546016,0.21441354,0.57848895,0
928501064519830,1.7491534,2.4933212,9.949356,0.87353665,0.18814635,0.5363393,0
928501073099830,1.6247265,2.78046,10.389636,0.8772018,0.15577053,0.52839804,0
928501081679830,1.6175481,2.9982069,10.5690975,0.93584484,0.1404989,0.5534435,0
928501090259830,1.727618,3.0747771,10.439885,1.0250311,0.14355323,0.6029235,0
928501098839830,1.8592232,2.993421,10.061819,1.1215477,0.15515965,0.6560688,0
928501107419778,1.9645073,2.821138,9.530613,1.1991276,0.16432263,0.6902772,0
928501115999778,2.0721843,2.6799614,8.997013,1.2339468,0.17409647,0.6969967,0
928501124579778,2.103291,2.6105695,8.56152,1.2272273,0.1875355,0.6817251,0
928501133159778,2.065006,2.6799614,8.288737,1.1801908,0.19975278,0.6524036,0
928501141739778,1.9764715,2.806781,8.183454,1.1074978,0.20097451,0.6206386,0
928501150319778,1.8999012,2.9790642,8.216953,1.0305289,0.19486587,0.5968149,0
928501158899778,1.8520447,3.1752756,8.303095,0.9627229,0.19181155,0.5870411,0
928501167479726,1.8592232,3.3355947,8.396415,0.9107994,0.18814635,0.59376055,0
928501176059726,1.9334008,3.4600215,8.441878,0.8790344,0.18325943,0.61025393,0
928501184639726,2.0267208,3.5150564,8.427522,0.8625411,0.17715079,0.62796897,0
928501193219726,2.07697,3.4911282,8.310273,0.8527672,0.17348559,0.64446235,0
928501201799726,2.050649,3.4360933,8.161918,0.8429934,0.16982041,0.64568406,0
928501210379674,1.942972,3.400201,7.9537425,0.82283485,0.16737695,0.6298016,0
928501218959726,1.8041883,3.4695928,7.745567,0.78862643,0.16554436,0.61269736,0
928501227539674,1.6965113,3.6346977,7.597212,0.74525505,0.18325943,0.5998692,0
928501236119674,1.6271194,3.842873,7.6139617,0.69394237,0.24006985,0.6035344,0
928501244699674,1.5888343,4.0271206,7.7120676,0.6499601,0.32009315,0.6236929,0
928501253279674,1.6103697,4.0941195,7.8197446,0.6218603,0.40561423,0.6591231,0
928501261859674,1.7611175,4.0773697,7.920243,0.605367,0.48136145,0.7018836,0
928501270439622,1.9740787,4.0007997,7.879565,0.59192795,0.5216785,0.7367029,0
928501279019674,2.1463618,3.9242291,7.7240314,0.5705477,0.51373726,0.7495311,0
928501287599622,2.3186452,3.8500516,7.5732837,0.5326741,0.48991355,0.7440333,0
928501296179622,2.481357,3.7854455,7.405786,0.4807506,0.478918,0.72509646,0
928501304759622,2.5435705,3.7543387,7.4033933,0.42271844,0.48991355,0.69088805,0
928501313339622,2.4430718,3.735196,7.5756764,0.36896232,0.5564978,0.64385146,0
928501321919622,2.2899313,3.7447674,7.867601,0.3329213,0.65851223,0.5931497,0
928501330499622,2.0865414,3.8333018,8.226524,0.32192573,0.7648027,0.54672396,0
928501339079570,1.9501505,3.9816568,8.530413,0.3347539,0.8662062,0.51801336,0
928501347659622,1.8137596,4.082155,8.73141,0.3695732,0.9523382,0.5112938,0
928501356239570,1.6845472,4.15394,8.827123,0.411112,1.0152572,0.5198459,0
928501364819570,1.5840486,4.1228333,8.815159,0.4422661,1.0396918,0.5381719,0
928501373399570,1.5002998,4.0773697,8.717052,0.4544834,1.0109812,0.5619956,0
928501381979570,1.4380864,4.0510488,8.664411,0.4386009,0.9291253,0.582765,0
928501390559570,1.442872,4.0390844,8.590233,0.40683594,0.82405657,0.5998692,0
928501399139570,1.4644074,4.0845485,8.4682,0.37079492,0.7043271,0.61452997,0
928501407719517,1.5074782,4.1467614,8.374879,0.33780822,0.61025393,0.6261364,0
928501416299517,1.5601203,4.180261,8.403593,0.30970845,0.57665634,0.63407767,0
928501424879517,1.68694,4.2448673,8.535198,0.29749113,0.6041453,0.6377428,0
928501433459517,1.8592232,4.331009,8.63809,0.3121519,0.6646209,0.6346885,0
928501442039517,2.0291135,4.4051867,8.690732,0.34758207,0.73792464,0.6224712,0
928501450619517,2.0937197,4.4051867,8.633304,0.39461866,0.82405657,0.6004801,0
928501459199517,2.0267208,4.3740797,8.549556,0.43737918,0.90224725,0.5668825,0
928501467779517,1.8065811,4.316652,8.429914,0.46547896,0.97249675,0.5216785,0
928501476359465,1.4380864,4.35733,8.365308,0.4734202,1.0305289,0.46975502,0
928501484939465,1.0671989,4.4554358,8.439486,0.45937032,1.0757328,0.42760533,0
928501493519465,0.72741807,4.6372905,8.585447,0.43127054,1.0958914,0.40133816,0
928501502099465,0.39960137,4.814359,8.647661,0.40194902,1.0464114,0.4007273,0
928501510679465,0.11724831,4.996214,8.585447,0.37384924,0.92301667,0.43127054,0
928501519259465,-0.069391854,5.06082,8.429914,0.34269515,0.7819069,0.49663305,0
928501527839413,-0.18185452,5.099105,8.236095,0.30298892,0.69455326,0.5864302,0
928501536419413,-0.16510476,5.0943193,8.133204,0.24678937,0.6695078,0.6921098,0
928501544999413,-0.023928227,5.0536413,8.276773,0.18142684,0.6829468,0.7977894,0
928501553579413,0.15553348,4.979464,8.377272,0.13439025,0.7043271,0.89125174,0
928501562159413,0.20338993,4.900501,8.3581295,0.1178969,0.70677054,0.9602794,0
928501570739413,0.17706887,4.847859,8.183454,0.1178969,0.69088805,1.012203,0
928501579319413,0.19381863,4.8239303,8.015956,0.116675176,0.6860011,1.0537417,0
928501587899361,0.25603202,4.76411,7.91785,0.10140356,0.68966633,1.0971131,0
928501596479413,0.30149564,4.6396832,7.798209,0.074525505,0.6976076,1.1435388,0
928501605059413,0.45942193,4.453043,7.6307116,0.03848448,0.69149894,1.1862994,0
928501613639361,0.7848458,4.2759743,7.479964,-0.013439025,0.6695078,1.2131774,0
928501622219361,1.0743774,4.2017965,7.2693954,-0.07819069,0.6352994,1.2052362,0
928501630799361,1.2777673,4.2041893,7.056434,-0.15699224,0.5931497,1.1563671,0
928501639379361,1.3950156,4.26401,6.9894347,-0.26389357,0.5540544,1.075122,0
928501647959309,1.2634103,4.3788652,6.946364,-0.38423395,0.5112938,0.97188586,0
928501656539309,1.5266209,4.5391846,8.075776,-0.5045743,0.4477639,0.8692606,0
928501665119309,1.2035898,4.558327,8.784052,-0.4838049,0.3035998,0.7348703,0
928501673699309,0.66759753,4.479364,8.831908,-0.36651886,0.13622284,0.6316342,0
928501682279309,0.47377887,4.4674,8.484949,-0.2498437,0.06291907,0.64568406,0
928501690859309,0.64606214,4.575077,8.183454,-0.16676609,0.12034036,0.7495311,0
928501699439309,1.0025927,4.6803613,8.056634,-0.11728604,0.25900668,0.8741475,0
928501708019309,1.2873386,4.5224347,8.030313,-0.08796453,0.3988947,0.95417076,0
928501716599309,1.3806586,4.2520456,8.054241,-0.06780599,0.49907652,0.9694424,0
928501725179309,1.3232309,4.0510488,8.1738825,-0.050090913,0.5668825,0.93706656,0
928501733759309,1.2849457,3.9601214,8.348558,-0.035430156,0.6169734,0.8790344,0
928501742339257,1.2466606,3.9768713,8.547162,-0.01282816,0.6469058,0.8081741,0
928501750919309,1.1294123,4.0677986,8.623733,0.018936807,0.65667963,0.7336486,0
928501759499257,0.95712906,4.1515474,8.650054,0.058032155,0.6695078,0.66706437,0
928501768079257,0.76570326,4.2592244,8.669196,0.0971275,0.69088805,0.61452997,0
928501776659257,0.5383851,4.3645086,8.812766,0.13500112,0.71043575,0.57971066,0
928501785239257,0.38524446,4.4195433,8.956335,0.16982041,0.69638586,0.56321734,0
928501793819257,0.39960137,4.5128636,9.202796,0.20036365,0.6542362,0.5668825,0
928501802399205,0.4426722,4.558327,9.293723,0.22418737,0.61269736,0.5839867,0
928501810979257,0.4426722,4.4889355,9.150154,0.24678937,0.56627166,0.6065887,0
928501819559257,0.42831525,4.4339004,8.886943,0.26267186,0.5167916,0.62735814,0
928501828139205,0.48095736,4.3788652,8.537591,0.27000225,0.47036588,0.6499601,0
928501836719205,0.44027936,4.35733,8.286345,0.25900668,0.4404335,0.6682861,0
928501845299205,0.55034924,4.402794,8.250452,0.21013749,0.39095345,0.7012728,0
928501853879205,0.9954142,4.5128636,7.539784,0.14966187,0.39828384,0.72815084,0
928501862459205,1.2370893,4.546363,7.958528,0.0073303776,0.51373726,0.71410096,0
928501871039205,0.5383851,4.0031924,9.693324,-0.22663084,0.46364638,0.6627883,0
928501879619153,0.1052842,4.2257247,9.487542,-0.31398448,0.12767074,0.5522218,0
928501888199153,0.37806597,4.7449675,9.075976,-0.3604102,-0.07208204,0.47586367,0
928501896779153,0.2440679,4.773681,9.135797,-0.4263836,-0.11484258,0.40866855,0
928501905359153,0.485743,4.5894337,8.717052,-0.49296787,-0.17715079,0.33902994,0
928501913939153,0.83030945,4.4578285,8.544769,-0.5216785,-0.13805544,0.2877173,0
928501922519153,1.0313065,4.412365,8.559127,-0.51801336,-0.056199558,0.24312419,0
928501931099153,1.2131611,4.4434714,8.578269,-0.50213087,-0.0006108648,0.21991132,0
928501939679153,1.2514462,4.4817567,8.748159,-0.49541134,0.06780599,0.20158538,0
928501948259101,1.0983056,4.4339004,8.946764,-0.49541134,0.12278382,0.17959425,0
928501956839153,0.8327023,4.354937,9.078369,-0.5033526,0.13683371,0.16126831,0
928501965419153,0.55513483,4.28076,9.102298,-0.50885034,0.116675176,0.15393792,0
928501973999153,0.35413775,4.2257247,9.241081,-0.5387827,0.07086031,0.16249003,0
928501982579101,0.2727818,4.26401,9.5353985,-0.5900954,0.0097738365,0.18264857,0
928501991159101,0.30149564,4.2951164,9.95175,-0.6230821,-0.045203995,0.20586143,0
928501999739101,0.37088752,4.223332,10.073783,-0.6004801,-0.07880156,0.21930045,0
928502008319101,0.16271193,3.9481573,8.422736,-0.5271763,-0.04459313,0.21991132,0
928502016899101,0.38524446,3.9314077,8.334201,-0.61514086,0.112399116,0.252898,0
928502025479049,0.7082755,4.1108694,7.948957,-0.849102,0.35857764,0.3084867,0
928502034059101,0.91166544,4.331009,8.142776,-1.0213659,0.5619956,0.29565856,0
928502042639101,0.715454,4.182654,8.695518,-1.1801908,0.6572905,0.22663084,0
928502051219101,0.63888365,4.115655,9.635897,-1.2351686,0.62552553,0.15210533,0
928502059799049,0.51445687,3.7854455,10.736595,-1.1264347,0.47830713,0.082466744,0
928502068379101,0.25124636,3.5940197,11.150554,-0.8472695,0.27977607,0.018936807,0
928502076959049,0.22731815,3.4528432,11.229517,-0.5051852,0.10262528,-0.022601997,0
928502085539049,0.29671,3.318845,11.136196,-0.19364414,0.0097738365,-0.039095346,0
928502094119049,0.4354937,3.3690944,11.107483,0.08796453,0.035430156,-0.053145237,0
928502102699049,0.5168497,3.4672,11.035698,0.3420843,0.1423315,-0.06780599,0
928502111279049,0.5024927,3.4241292,10.724631,0.5705477,0.23823726,-0.07513637,0
928502119859049,0.3278167,3.3284163,10.30828,0.7672462,0.29565856,-0.07513637,0
928502128439049,0.078963146,3.3236306,9.932607,0.91996235,0.30787584,-0.068416856,0
928502137019049,-0.050249275,3.4337006,9.482756,1.0238093,0.28893903,-0.048258316,0
928502145599049,0.02632105,3.6346977,8.882157,1.0616829,0.26328272,-0.025045456,0
928502154178997,0.11246266,3.9457645,8.32463,1.0280855,0.27855435,-0.008552107,0
928502162758997,0.11964113,4.223332,7.8149586,0.9309579,0.3262018,-0.0024434591,0
928502171338997,0.023928227,4.347759,7.379465,0.77946347,0.36468628,0.0006108648,0
928502179918997,-0.08135597,4.359723,7.152147,0.59192795,0.39522952,0.0018325944,0
928502188498997,-0.20817557,4.314259,7.2215385,0.40194902,0.42699447,0.0048869182,0
928502197078997,-0.32303107,4.2855453,7.499106,0.23396121,0.43737918,0.01282816,0
928502205658945,-0.4019942,4.211368,7.865208,0.103236146,0.40805766,0.036651887,0
928502214238997,-0.4211368,4.254439,8.298309,0.0097738365,0.36835146,0.07574723,0
928502222818997,-0.3493521,4.302295,8.733803,-0.047647454,0.31337363,0.1178969,0
928502231398945,-0.25124636,4.2448673,9.131011,-0.07086031,0.2480111,0.14416409,0
928502239978945,-0.12921242,4.1347976,9.35833,-0.05497783,0.22479823,0.1545488,0
928502248558945,-0.047856454,4.0438704,9.52822,-0.018936807,0.23457208,0.15821397,0
928502257138945,-0.011964113,4.031906,9.427721,0.029932374,0.2480111,0.16126831,0
928502265718945,0.078963146,4.098905,9.276974,0.086742796,0.27855435,0.16859868,0
928502274298945,0.17228323,4.15394,9.238688,0.14110976,0.3188714,0.17959425,0
928502282878945,0.2009971,4.173083,9.150154,0.19486587,0.34391686,0.18692462,0
928502291458945,0.22253251,4.1874394,9.085547,0.24129158,0.36102107,0.18448116,0
928502300038945,0.2656033,4.173083,9.018549,0.27183482,0.37568185,0.17653993,0
928502308618945,0.16031912,4.1922255,8.953942,0.28221953,0.375071,0.1594357,0
928502317198892,0.0,4.2687955,8.803194,0.2791652,0.35674503,0.13988803,0
928502325778892,-0.12921242,4.369294,8.664411,0.26267186,0.3274235,0.12889247,0
928502334358892,-0.2440679,4.4889355,8.539984,0.23701553,0.29260424,0.12889247,0
928502342938892,-0.30149564,4.599005,8.539984,0.20708317,0.25900668,0.14110976,0
928502351518892,-0.39720857,4.65404,8.6141615,0.17348559,0.23090689,0.16615522,0
928502360098892,-0.29671,4.6085763,8.676374,0.14110976,0.21624613,0.2083049,0
928502368678892,-0.050249275,4.4339004,8.645268,0.112399116,0.22601996,0.25106543,0
928502377258892,0.17467605,4.2999024,8.695518,0.08002329,0.24312419,0.27672175,0
928502385838892,0.30867413,4.3070807,8.755338,0.058032155,0.2614501,0.27672175,0
928502394418892,0.3493521,4.362116,8.796016,0.053145237,0.27366742,0.26511532,0
928502402998892,0.3589234,4.395615,8.752945,0.06780599,0.2706131,0.25228715,0
928502411578892,0.28235307,4.4075794,8.606983,0.08552107,0.23884813,0.23335035,0
928502420158840,0.148355,4.4578285,8.420342,0.091018856,0.18692462,0.20586143,0
928502428738840,0.15074782,4.469793,8.178668,0.086742796,0.1404989,0.17959425,0
928502437318892,0.29192436,4.4051867,7.9776707,0.07696896,0.12278382,0.15515965,0
928502445898840,0.27756742,4.469793,7.8077803,0.062308207,0.12217296,0.124616414,0
928502454478840,0.26799613,4.558327,7.678568,0.046425723,0.13072506,0.098960094,0
928502463058840,0.2847459,4.6205406,7.5086775,0.03604102,0.15638138,0.08002329,0
928502471638840,0.26799613,4.6731825,7.3866434,0.018325943,0.17592905,0.07024945,0
928502480218840,0.16031912,4.766503,7.2670026,-0.007941242,0.16982041,0.06597339,0
928502488798840,0.0,4.8239303,7.23111,-0.05131264,0.12400555,0.06902772,0
928502497378840,-0.1052842,4.85743,7.1473613,-0.102014415,0.059253883,0.082466744,0
928502505958840,-0.11724831,4.87418,7.02772,-0.15821397,0.0024434591,0.10690133,0
928502514538840,-0.059820566,4.900501,6.9822564,-0.21868959,-0.021991132,0.13500112,0
928502523118840,0.047856454,4.912465,7.018149,-0.2791652,-0.0024434591,0.16187917,0
928502531698840,0.28235307,4.843073,7.1545396,-0.3329213,0.03848448,0.18142684,0
928502540278840,0.5192425,4.766503,7.448857,-0.37873617,0.07819069,0.18325943,0
928502548858788,0.5910272,4.6779685,7.6713896,-0.40805766,0.13377939,0.16432263,0
928502557438788,0.58624154,4.634897,7.8221374,-0.42088583,0.1838703,0.1423315,0
928502566018788,0.44985065,4.627719,7.7479596,-0.42027497,0.2131918,0.11178826,0
928502574598788,0.08853444,4.7401814,7.7144604,-0.42577276,0.22601996,0.07574723,0
928502583178840,-0.14356937,4.773681,7.9226356,-0.44715303,0.21991132,0.054366965,0
928502591758788,-0.14117654,4.76411,8.310273,-0.45692685,0.21624613,0.056810424,0
928502600338788,-0.10767702,4.6803613,8.740981,-0.44287696,0.21746786,0.06169734,0
928502608918788,-0.050249275,4.510471,9.056833,-0.4074468,0.1924224,0.06475167,0
928502617498788,-0.02632105,4.347759,9.059227,-0.343306,0.15515965,0.058032155,0
928502626078788,0.23449662,4.139583,8.719446,-0.25106543,0.15515965,0.043982264,0
928502634658788,0.55034924,4.034299,8.298309,-0.15760311,0.2272417,-0.009162972,0
928502643238788,0.6723832,4.0845485,8.126026,-0.08857539,0.32375833,-0.10567961,0
928502651818788,0.60059845,4.1778684,7.944171,-0.02687805,0.37262753,-0.20891576,0
928502660398788,0.34456646,4.354937,7.82453,0.0140498895,0.37995788,-0.3121519,0
928502668978788,0.059820566,4.4578285,7.735996,0.021991132,0.3158171,-0.39278606,0
928502677558788,-0.27517462,4.534399,7.645068,-0.0018325944,0.2131918,-0.43615746,0
928502686138736,-0.53599226,4.694718,7.6402826,-0.04886918,0.11728604,-0.44470957,0
928502694718736,-0.7728817,4.8047876,7.743174,-0.10262528,0.041538805,-0.4386009,0
928502703298788,-0.96430755,4.8885365,7.475178,-0.1404989,-0.010384701,-0.42271844,0
928502711878736,-1.2969099,5.3383875,8.181061,-0.20097451,-0.013439025,-0.38851,0
928502720458736,-1.146162,5.144569,7.649854,-0.18264857,0.013439025,-0.31093016,0
928502729038736,-1.0504491,3.8620157,7.1210403,-0.22785257,0.034819294,-0.2357938,0
928502737618736,-0.7178468,3.8739798,7.8149586,-0.43065968,0.02443459,-0.16065744,0
928502746198736,0.016749758,4.369294,8.575876,-0.59742576,-0.08429934,-0.10567961,0
928502754778736,0.67477596,4.6205406,9.073584,-0.6847794,-0.28344125,-0.12156209,0
928502763358736,0.76331043,4.6205406,9.346365,-0.7012728,-0.47830713,-0.21074834,0
928502771938736,0.4546363,4.45065,9.427721,-0.6701187,-0.5870411,-0.32131487,0
928502780518736,-0.009571291,4.2927237,9.487542,-0.6175843,-0.58032155,-0.41355544,0
928502789098736,-0.50009996,4.261617,9.60479,-0.55100006,-0.4715876,-0.4630355,0
928502797678736,-0.9810573,4.388437,9.8632145,-0.47036588,-0.3176497,-0.46364638,0
928502806258736,-1.2203395,4.5678983,9.982856,-0.37140578,-0.14599667,-0.4196641,0
928502814838736,-1.3543376,4.74736,10.07139,-0.25778493,0.03176497,-0.3506364,0
928502823418736,-1.402194,4.883751,10.092926,-0.14355323,0.17226386,-0.26389357,0
928502831998736,-1.294517,4.867001,10.140782,-0.040317077,0.27855435,-0.17409647,0
928502840578736,-1.1030912,4.685147,10.068997,0.048258316,0.365908,-0.09224058,0
928502849158736,-0.8446664,4.4171505,9.789038,0.12034036,0.42394015,-0.037262753,0
928502857738684,-0.6149554,4.1850467,9.473185,0.16982041,0.45570514,-0.013439025,0
928502866318736,-0.40917268,4.0438704,9.183653,0.19120067,0.46364638,-0.017104214,0
928502874898684,-0.26081768,3.9553359,8.939586,0.18264857,0.46425724,-0.039095346,0
928502883478684,-0.17228323,3.9457645,8.685946,0.14599667,0.4581486,-0.07574723,0
928502892058684,-0.17467605,3.9768713,8.513663,0.07696896,0.45570514,-0.12278382,0
928502900638684,-0.28235307,4.106084,8.575876,-0.018325943,0.44837475,-0.17287473,0
928502909218736,-0.4546363,4.182654,8.930014,-0.12889247,0.4214967,-0.21868959,0
928502917798684,-0.66999036,4.1754756,9.4636135,-0.22785257,0.40194902,-0.25656322,0
928502926378684,-0.9164511,4.0797625,10.10489,-0.29749113,0.39767298,-0.28893903,0
928502934958684,-1.0193424,3.9457645,10.602597,-0.33169958,0.4062251,-0.31520623,0
928502943538684,-0.997807,3.8117664,10.9352,-0.33353218,0.43982264,-0.3414734,0
928502952118684,-0.9906286,3.711268,11.143375,-0.31276277,0.5100721,-0.37384924,0
928502960698684,-1.1557333,3.65384,11.332408,-0.2687805,0.59192795,-0.41416633,0
928502969278684,-1.3256238,3.6323047,11.55494,-0.20769402,0.6676752,-0.45875946,0
928502977858684,-1.579263,3.6203406,11.940185,-0.12767074,0.76419187,-0.5051852,0
928502986438684,-1.9669002,3.5988052,12.468999,-0.022601997,0.9132428,-0.54855657,0
928502995018684,-2.4933212,3.6251264,12.878172,0.109344795,1.0971131,-0.57971066,0
928503003598684,-3.0843484,3.6897326,13.064812,0.26450446,1.2797617,-0.582765,0
928503012178684,-3.7974095,3.8141594,13.490734,0.41844237,1.4288127,-0.5479457,0
928503020758632,-4.6492543,4.0414777,14.340186,0.5540544,1.4556907,-0.4581486,0
928503029338684,-5.288138,4.0438704,14.519648,0.686612,1.2632684,-0.31276277,0
928503037918632,-5.5298133,3.8548372,14.163117,0.7855721,0.99143356,-0.13072506,0
928503046498684,-5.4580283,3.7543387,14.057833,0.82161313,0.8142828,0.051923506,0
928503055078684,-5.087141,3.696911,13.892728,0.8118393,0.6707295,0.216857,0
928503063658632,-4.35733,3.6107693,13.586447,0.77824175,0.5290089,0.33719736,0
928503072238632,-3.5533416,3.455236,13.081561,0.731816,0.4196641,0.39278606,0
928503080818632,-2.8833513,3.2638102,12.397214,0.6682861,0.36468628,0.36651886,0
928503089398632,-2.2564318,3.022135,11.612369,0.5888736,0.40133816,0.27244568,0
928503097978684,-1.8185452,2.7565317,10.908878,0.49724394,0.53328496,0.12705988,0
928503106558632,-1.7970098,2.6249263,10.516456,0.40683594,0.72448564,-0.046425723,0
928503115138632,-2.2468605,2.7302105,10.423136,0.3347539,0.8936952,-0.21135922,0
928503123718632,-3.034099,2.9168508,10.549955,0.30115634,0.9957096,-0.32986698,0
928503132298632,-3.8691943,3.2135608,10.798809,0.31154105,1.0531309,-0.3848448,0
928503140878632,-4.570291,3.4504502,10.686346,0.3555233,1.0635155,-0.36651886,0
928503149458632,-4.9866424,3.6394832,10.339387,0.4092794,1.0787872,-0.284663,0
928503158038684,-5.2426744,3.8404803,9.891929,0.44348782,1.1288781,-0.1631009,0
928503166618632,-5.369494,3.9768713,9.592826,0.43127054,1.1893537,-0.03054324,0
928503175198632,-5.06082,3.9218364,9.6071825,0.34941465,1.1410954,0.08124501,0
928503183778632,-4.421936,3.7686956,9.470792,0.20280711,0.9334014,0.13622284,0
928503192358632,-3.7591243,3.548556,9.035298,0.015882485,0.6646209,0.11606431,0
928503200938632,-3.5030923,3.3427732,8.750552,-0.18875721,0.47464192,0.033597562,0
928503209518632,-3.6634114,3.2709885,8.882157,-0.3836231,0.3933969,-0.07513637,0
928503218098632,-4.06062,3.3667014,9.322437,-0.52778715,0.35124725,-0.16065744,0
928503226678632,-4.4578285,3.5030923,9.743574,-0.5986475,0.33047783,-0.19914192,0
928503235258632,-4.790431,3.7016966,10.143175,-0.59253883,0.3506364,-0.19792019,0
928503243838632,-5.235496,3.900301,10.473385,-0.51801336,0.3836231,-0.16371176,0
928503252418632,-5.5944195,4.074977,10.57149,-0.3921752,0.3921752,-0.09651663,0
928503260998632,-5.7379885,4.1467614,10.5690975,-0.23884813,0.3573559,0.0018325944,0
928503269578580,-5.6997037,4.180261,10.60499,-0.086742796,0.3017672,0.116675176,0
928503278158632,-5.4795637,4.1874394,10.459028,0.04703659,0.25778493,0.22357652,0
928503286738632,-5.218746,4.1635113,9.966106,0.15027274,0.24434592,0.30604327,0
928503295318632,-4.867001,4.0941195,9.408579,0.19669846,0.28527385,0.35674503,0
928503303898580,-4.4721856,3.9744785,8.877372,0.18325943,0.35246897,0.37384924,0
928503312478632,-4.237689,3.9074793,8.403593,0.12156209,0.40378162,0.35124725,0
928503321058632,-4.180261,3.9290147,8.047063,0.03604102,0.4331031,0.3017672,0
928503329638632,-4.211368,3.859623,6.908079,-0.056810424,0.43065968,0.2498437,0
928503338218632,-4.5894337,3.4863427,3.7806597,-0.20219624,0.3591885,0.2131918,0
928503346798632,-4.338187,3.3403804,4.1754756,-0.57482374,0.1404989,0.21074834,0
928503355378580,-4.208975,3.4839497,6.1040907,-0.98715746,-0.1178969,0.20708317,0
928503363958632,-4.436293,3.615555,7.515856,-1.2431098,-0.34636033,0.19120067,0
928503372538632,-4.8885365,3.6586258,8.817552,-1.364061,-0.5393936,0.19975278,0
928503381118580,-5.45085,3.5796626,9.690931,-1.3677262,-0.69516414,0.24678937,0
928503389698632,-5.855237,3.4360933,10.140782,-1.282816,-0.76419187,0.33597562,0
928503398278632,-5.977271,3.3499517,10.286744,-1.1343759,-0.7391464,0.44959646,0
928503406858632,-5.649454,3.290131,10.595419,-0.95294905,-0.68966633,0.56810427,0
928503415438632,-5.3072805,3.2231321,10.461421,-0.7348703,-0.6542362,0.67195123,0
928503424018632,-4.9866424,3.237489,10.097712,-0.5064069,-0.6212495,0.7562506,0
928503432598632,-4.6372905,3.2877383,9.669396,-0.2877173,-0.5497783,0.82650006,0
928503441178632,-4.3238306,3.359523,9.183653,-0.091629714,-0.433714,0.88941914,0
928503449758632,-4.0773697,3.3212378,9.226724,0.051923506,-0.32009315,0.95661426,0
928503458338580,-4.024728,3.2614172,9.77468,0.15882485,-0.25656322,1.0274745,0
928503466918632,-4.058227,3.2805598,10.212567,0.27183482,-0.2480111,1.0971131,0
928503475498632,-4.0103707,3.3092737,10.054641,0.3933969,-0.26755878,1.1612539,0
928503484078632,-3.9074793,3.2135608,9.327223,0.49235702,-0.2858847,1.2131774,0
928503492658580,-3.845266,3.1202407,8.683554,0.53511757,-0.32253662,1.2486076,0
928503501238632,-3.7615173,3.0604203,8.334201,0.52778715,-0.3836231,1.2681553,0
928503509818632,-3.5892339,3.0699914,8.10449,0.49235702,-0.4819723,1.273653,0
928503518398580,-3.199204,3.196811,7.8077803,0.433714,-0.59803665,1.2663227,0
928503526978580,-2.6105695,3.3523445,7.4010005,0.3573559,-0.67378384,1.2406664,0
928503535558632,-2.1176481,3.4719856,7.1569324,0.2687805,-0.64507324,1.1869103,0
928503544138580,-1.9310079,3.4217365,7.111469,0.18814635,-0.53023064,1.1105522,0
928503552718632,-1.8281165,2.981457,7.192825,0.124616414,-0.3933969,1.0396918,0
928503561298632,-1.8089739,2.481357,7.3698936,0.067195125,-0.33353218,0.9957096,0
928503569878632,-1.713261,2.1487548,7.810173,0.023212861,-0.36407542,0.9645555,0
928503578458580,-1.4213367,1.8999012,8.451449,0.0012217296,-0.4996874,0.93828833,0
928503587038580,-1.2490535,2.1750758,8.592627,0.016493348,-0.7147118,0.8833105,0
928503595618580,-1.1724831,2.5962126,8.343773,0.07391464,-0.88514304,0.8063415,0
928503604198580,-1.1222339,2.8953154,7.8987074,0.16187917,-0.9242384,0.73609203,0
928503612778580,-1.18684,3.0029924,7.2263246,0.262061,-0.83810645,0.6860011,0
928503621358632,-1.1820544,2.8594232,6.5228343,0.33964083,-0.6817251,0.6798925,0
928503629938580,-1.0217353,2.7613173,6.0490556,0.3591885,-0.52778715,0.7202096,0
928503638518632,-0.701097,2.8163524,5.989235,0.33902994,-0.37751442,0.77518743,0
928503647098580,-0.27996024,2.8977082,6.175875,0.3103193,-0.23701553,0.80878496,0
928503655678632,0.09810573,2.9359934,6.3625154,0.28710645,-0.100181825,0.80878496,0
928503664258632,0.28953153,2.9647074,6.530013,0.2828304,0.04214967,0.77091134,0
928503672838580,0.26799613,3.0053852,6.6735826,0.29016078,0.17898338,0.71165746,0
928503681418580,0.09092726,3.0317063,6.7669024,0.30054548,0.27305657,0.6530144,0
928503689998632,-0.062213387,3.0604203,6.948757,0.29932374,0.29260424,0.6090322,0
928503698578632,-0.14356937,3.129812,7.207182,0.284663,0.22663084,0.58032155,0
928503707158580,-0.07178468,3.17049,7.448857,0.26328272,0.09407318,0.56321734,0
928503715738580,0.06460621,3.2422748,7.757531,0.239459,-0.06475167,0.5479457,0
928503724318632,0.26799613,3.2566316,8.013563,0.22357652,-0.17653993,0.524122,0
928503732898580,0.45702913,3.2590244,7.9920278,0.22663084,-0.23396121,0.4874701,0
928503741478580,0.567099,3.2685957,7.8053875,0.24190246,-0.26939136,0.44348782,0
928503750058580,0.61016977,3.306881,7.5924263,0.2516763,-0.28710645,0.40317076,0
928503758638632,0.66999036,3.385844,7.4010005,0.24495678,-0.2858847,0.37140578,0
928503767218580,0.7465607,3.5174494,7.300502,0.22113305,-0.25900668,0.34269515,0
928503775798632,0.8135597,3.656233,7.3770723,0.1875355,-0.20891576,0.3158171,0
928503784378632,0.8327023,3.7304106,7.5613194,0.15149446,-0.15515965,0.29199335,0
928503792958632,0.64845496,3.76391,7.609176,0.12217296,-0.109344795,0.26939136,0
928503801538632,0.47377887,3.7974095,7.649854,0.09346231,-0.048258316,0.25961754,0
928503810118580,0.3684947,3.8117664,7.795816,0.068416856,0.022601997,0.26083925,0
928503818698632,0.28953153,3.8380876,8.01117,0.051923506,0.06658426,0.26816964,0
928503827278632,0.26081768,3.8739798,8.286345,0.043371398,0.045814857,0.27550003,0
928503835858632,0.16031912,3.9696927,8.415557,0.043371398,-0.031154104,0.28221953,0
928503844438632,0.04546363,4.098905,8.532805,0.04703659,-0.09529491,0.28832817,0
928503853018632,-0.09571291,4.208975,8.559127,0.0537561,-0.10690133,0.29810202,0
928503861598632,-0.24646074,4.2329035,8.453842,0.06169734,-0.08185588,0.31520623,0
928503870178632,-0.30867413,4.213761,8.271988,0.05986475,-0.028710645,0.33719736,0
928503878758580,-0.3182454,4.1587257,8.042277,0.045203995,0.047647454,0.36224282,0
928503887338632,-0.19621146,4.0965123,7.881958,0.015882485,0.12705988,0.3866774,0
928503895918580,-0.07178468,4.0414777,7.8963146,-0.023823727,0.19181155,0.40133816,0
928503904498632,0.02871387,3.9625144,7.853244,-0.056810424,0.2290743,0.40194902,0
928503913078632,0.08135597,3.8811584,7.7407813,-0.091629714,0.2583958,0.38912088,0
928503921658632,0.11485548,3.8763726,7.5924263,-0.1301142,0.31520623,0.3677406,0
928503930238632,-0.011964113,3.9194436,7.647461,-0.16371176,0.40561423,0.35124725,0
928503938818632,-0.27756742,3.9457645,7.905886,-0.18081598,0.48502663,0.34697118,0
928503947398632,-0.59581286,3.9218364,8.118847,-0.17104214,0.51434815,0.35674503,0
928503955978632,-0.8805587,3.926622,8.274381,-0.13988803,0.5051852,0.37690356,0
928503964558632,-1.0815558,3.926622,8.305488,-0.09407318,0.47403106,0.40378162,0
928503973138632,-1.1629118,3.9361932,8.114061,-0.04214967,0.4392118,0.43249226,0
928503981718632,-1.1318051,3.9625144,7.8484583,-0.0030543238,0.4166098,0.46425724,0
928503990298632,-1.0743774,4.0127635,7.678568,0.018325943,0.40317076,0.49663305,0
928503998878632,-1.0480564,4.0845485,7.60439,0.031154104,0.3781253,0.5253437,0
928504007458632,-0.9379865,4.1587257,7.5086775,0.04092794,0.33414304,0.5528326,0
928504016038632,-0.8662018,4.17069,7.3292155,0.05253437,0.2809978,0.5711586,0
928504024618632,-0.8327023,4.1371903,7.219146,0.05070178,0.24434592,0.5833759,0
928504033198632,-0.8997013,4.1635113,7.190432,0.032986697,0.23396121,0.5900954,0
928504041778632,-0.9595219,4.1754756,7.2119675,0.0024434591,0.2254091,0.59803665,0
928504050358632,-0.91405827,4.2257247,7.2622166,-0.034819294,0.22113305,0.61208653,0
928504058938632,-0.9068798,4.2687955,7.338787,-0.06597339,0.21746786,0.62552553,0
928504067518632,-1.0001999,4.314259,7.4392858,-0.09529491,0.19975278,0.6377428,0
928504076098632,-1.1820544,4.3645086,7.5254273,-0.12705988,0.16798781,0.6536253,0
928504084678632,-1.3208381,4.486542,7.6331043,-0.16920954,0.1386663,0.67683816,0
928504093258632,-1.3686945,4.625326,7.7671022,-0.21868959,0.12705988,0.7061597,0
928504101838632,-1.3567305,4.7306104,7.891529,-0.2706131,0.14110976,0.73792464,0
928504110418632,-1.1389836,4.725825,8.114061,-0.31642795,0.19547673,0.7660244,0
928504118998632,-0.79920274,4.5320063,8.362915,-0.34697118,0.26939136,0.7843504,0
928504127578632,-0.56470615,4.2927237,8.52802,-0.3604102,0.3274235,0.77824175,0
928504136158632,-0.51206404,4.1084766,8.700303,-0.35857764,0.38912088,0.75686145,0
928504144738632,-0.634098,3.979264,8.872586,-0.34574947,0.45203993,0.7336486,0
928504153318632,-0.7728817,3.940979,9.073584,-0.3280344,0.49296787,0.7208204,0
928504161898632,-0.91405827,4.0031924,9.159725,-0.3017672,0.50029826,0.7171553,0
928504170478632,-1.0145568,4.1371903,9.111869,-0.27122396,0.47830713,0.7232639,0
928504179058684,-1.0241281,4.254439,9.013762,-0.25045455,0.45265082,0.74097896,0
928504187638632,-1.012164,4.3669014,8.9108715,-0.24495678,0.44104436,0.76235926,0
928504196218684,-1.0241281,4.4315076,8.822337,-0.24740024,0.4331031,0.7849612,0
928504204798632,-0.9164511,4.453043,8.666803,-0.25961754,0.42088583,0.80878496,0
928504213378684,-0.7106683,4.45065,8.513663,-0.2791652,0.42699447,0.82833266,0
928504221958684,-0.5288138,4.409972,8.477771,-0.3035998,0.4630355,0.8393282,0
928504230538684,-0.37088752,4.438686,8.712267,-0.31276277,0.53511757,0.84177166,0
928504239118684,-0.51206404,4.5320063,8.683554,-0.19730933,0.7006619,0.83993906,0
928504247698632,-0.6939186,4.486542,8.733803,-0.112399116,0.76235926,0.83810645,0
928504256278684,-0.64606214,4.402794,8.707481,-0.049480047,0.7806852,0.8527672,0
928504264858684,-0.5024927,4.362116,8.472985,-0.018936807,0.7495311,0.8655954,0
928504273438684,-0.38524446,4.362116,8.185846,-0.025045456,0.7006619,0.8704823,0
928504282018684,-0.33738798,4.436293,8.039884,-0.06658426,0.6511819,0.8643737,0
928504290598684,-0.44745782,4.5798626,7.9944205,-0.13255766,0.6017018,0.84421515,0
928504299178684,-0.66041905,4.7569313,8.094919,-0.20586143,0.56260645,0.81916964,0
928504307758684,-0.9236295,4.910072,8.240881,-0.26939136,0.53511757,0.7990111,0
928504316338684,-1.1294123,4.962714,8.343773,-0.31642795,0.524122,0.79106987,0
928504324918684,-1.2035898,4.9698925,8.41795,-0.34636033,0.54672396,0.799622,0
928504333498684,-1.1246266,4.8933225,8.496913,-0.36224282,0.6004801,0.8185588,0
928504342078684,-1.0193424,4.76411,8.630911,-0.36224282,0.6688969,0.8344413,0
928504350658684,-0.93559366,4.6564326,8.810373,-0.34269515,0.7177661,0.84238255,0
928504359238684,-0.91884387,4.551149,8.906086,-0.30726498,0.7324269,0.83993906,0
928504367818684,-0.9595219,4.5152564,8.941978,-0.26572618,0.72509646,0.8301652,0
928504376398684,-0.97866446,4.5152564,8.927621,-0.2290743,0.7128792,0.822224,0
928504384978684,-1.0001999,4.546363,8.903693,-0.20036365,0.69394237,0.82161313,0
928504393558684,-1.0432707,4.625326,8.88455,-0.1838703,0.66401,0.8277218,0
928504402138684,-1.0432707,4.658826,8.846265,-0.18081598,0.62796897,0.84054995,0
928504410718736,-1.026521,4.651647,8.796016,-0.18875721,0.5852085,0.85459983,0
928504419298684,-0.9451649,4.6085763,8.681161,-0.20402883,0.54183704,0.8643737,0
928504427878736,-0.8207382,4.57747,8.554341,-0.23029602,0.50885034,0.8668171,0
928504436458736,-0.701097,4.5559344,8.465807,-0.26267186,0.4856375,0.85765415,0
928504445038736,-0.59342,4.5296135,8.4705925,-0.2932151,0.48136145,0.8411608,0
928504453618736,-0.51206404,4.534399,8.573483,-0.31276277,0.4893027,0.8179479,0
928504462198736,-0.50009996,4.5798626,8.736196,-0.320704,0.50152,0.79106987,0
928504470778736,-0.55752766,4.615755,8.872586,-0.31398448,0.5100721,0.763581,0
928504479358736,-0.634098,4.618148,8.961121,-0.29688028,0.5051852,0.73792464,0
928504487938736,-0.71306115,4.6205406,8.977871,-0.27672175,0.49235702,0.7171553,0
928504496518736,-0.7848458,4.6707897,9.018549,-0.25900668,0.4752528,0.7012728,0
928504505098736,-0.8350951,4.725825,9.085547,-0.2480111,0.44837475,0.6921098,0
928504513678736,-0.82313097,4.766503,9.1669035,-0.24251331,0.41233373,0.6860011,0
928504522258736,-0.7920243,4.792824,9.265009,-0.23823726,0.38056874,0.6817251,0
928504530838736,-0.6843473,4.766503,9.288938,-0.2272417,0.36346453,0.67378384,0
928504539418788,-0.5886344,4.7425747,9.288938,-0.20219624,0.37384924,0.6572905,0
928504547998736,-0.5072784,4.6803613,9.312865,-0.16371176,0.41233373,0.63224506,0
928504556578736,-0.485743,4.651647,9.377472,-0.11300998,0.46425724,0.6004801,0
928504565158788,-0.49052864,4.644469,9.470792,-0.055588696,0.5082395,0.5638282,0
928504573738788,-0.61016977,4.642076,9.6071825,0.01282816,0.5357284,0.5253437,0
928504582318736,-0.79441714,4.6325045,9.71486,0.08552107,0.5369501,0.48991355,0
928504590898788,-0.94277215,4.610969,9.745967,0.1594357,0.5253437,0.46364638,0
928504599478788,-0.98584294,4.587041,9.724431,0.22479823,0.524122,0.44532043,0
928504608058788,-0.96430755,4.5894337,9.690931,0.27855435,0.5363393,0.4263836,0
928504616638788,-0.9236295,4.6468616,9.583255,0.3262018,0.5497783,0.40439248,0
928504625218788,-0.83988076,4.8885365,9.233903,0.36835146,0.54672396,0.37873617,0
928504633798788,-0.8039884,5.326423,8.556734,0.39828384,0.5369501,0.3555233,0
928504642378788,-0.9595219,5.797809,7.82453,0.4007273,0.5540544,0.33780822,0
928504650958788,-1.1772687,6.020342,7.21436,0.37018406,0.6236929,0.33108872,0
928504659538788,-1.68694,5.855237,6.862615,0.30237806,0.72387475,0.33597562,0
928504668118788,-2.1798615,5.5202417,6.9583282,0.19547673,0.87292576,0.343306,0
928504676698788,-2.306681,5.0679984,7.578069,0.043982264,1.047633,0.36468628,0
928504685278788,-2.143969,4.6037908,8.523234,-0.14416409,1.1722496,0.3903426,0
928504693858788,-1.9716859,4.1515474,9.611969,-0.3500255,1.1991276,0.3970621,0
928504702438788,-2.0195422,3.7016966,10.729417,-0.5516109,1.1191043,0.37934703,0
928504711018788,-2.160719,3.3092737,11.700903,-0.7232639,0.962112,0.35674503,0
928504719598840,-2.2707887,3.0029924,12.437892,-0.84421515,0.73792464,0.34819293,0
928504728178788,-2.2588246,2.8019953,12.870993,-0.8918626,0.45387253,0.36712974,0
928504736758840,-1.9788643,2.7493532,12.77528,-0.85521066,0.12583815,0.40683594,0
928504745338788,-1.5002998,2.7732813,12.165111,-0.72753996,-0.20952661,0.45692685,0
928504753918840,-1.0073783,2.8498518,11.284552,-0.52778715,-0.4893027,0.5027417,0
928504762498840,-0.64845496,2.87378,10.387243,-0.2877173,-0.63896453,0.53023064,0
928504771078840,-0.3900301,2.9671001,9.530613,-0.034819294,-0.66217744,0.5412262,0
928504779658840,-0.09332009,3.1202407,8.690732,0.20647229,-0.58032155,0.5381719,0
928504788238840,0.16031912,3.3355947,7.850851,0.42027497,-0.40194902,0.5216785,0
928504796818840,0.39960137,3.6011982,7.1952176,0.5882628,-0.12950334,0.4856375,0
928504805398840,0.59581286,3.871587,6.8075805,0.70493793,0.19853105,0.42943794,0
928504813978840,0.5982057,4.098905,6.6592255,0.7660244,0.5039635,0.34941465,0
928504822558840,0.3493521,4.220939,6.6687965,0.76907873,0.7299834,0.2480111,0
928504831138840,-0.12203395,4.237689,6.687939,0.7202096,0.8619302,0.13072506,0
928504839718892,-0.7465607,4.2041893,6.7334027,0.62857985,0.9346231,0.011606431,0
928504848298892,-1.3639089,4.1898327,6.8315086,0.5045743,0.98227054,-0.091018856,0
928504856878892,-1.8257236,4.249653,7.0325055,0.3677406,1.0012074,-0.15882485,0
928504865458892,-2.120041,4.3070807,7.379465,0.2357938,0.9798271,-0.18814635,0
928504874038892,-2.2420747,4.3238306,7.7742805,0.12217296,0.92179495,-0.1838703,0
928504882618892,-2.3712873,4.2424746,8.145168,0.036651887,0.8503238,-0.1594357,0
928504891198892,-2.5124638,4.0534415,8.427522,-0.02565632,0.7696896,-0.12217296,0
928504899778892,-2.5268207,3.818945,8.6548395,-0.07391464,0.6902772,-0.06780599,0
928504908358892,-2.4885356,3.656233,8.898908,-0.118507765,0.6200278,-0.0042760535,0
928504916938892,-2.4311078,3.5700915,9.171689,-0.15515965,0.5534435,0.05742129,0
928504925518945,-2.3712873,3.5246277,9.449257,-0.18203771,0.4752528,0.116675176,0
928504934098892,-2.2899313,3.4600215,9.640682,-0.19364414,0.37079492,0.17043127,0
928504942678892,-2.1750758,3.505485,9.657433,-0.18509203,0.24678937,0.22296564,0
928504951258945,-2.103291,3.574877,9.561719,-0.16432263,0.14660755,0.27855435,0
928504959838945,-2.0434706,3.5796626,9.363115,-0.13500112,0.100181825,0.33964083,0
928504968418945,-1.98365,3.522235,9.219545,-0.108123064,0.102014415,0.40255988,0
928504976998892,-1.8975084,3.4360933,9.126225,-0.08918626,0.12705988,0.46547896,0
928504985578945,-1.7706888,3.3810585,9.131011,-0.08429934,0.13744457,0.524122,0
928504994158945,-1.5984055,3.3667014,9.193225,-0.091629714,0.10995566,0.5656608,0
928505002738945,-1.4117653,3.3882368,9.226724,-0.11056653,0.05070178,0.5852085,0
928505011318945,-1.308874,3.455236,9.30808,-0.13805544,-0.013439025,0.57971066,0
928505019898945,-1.1724831,3.4576287,9.332008,-0.16493349,-0.07391464,0.56077385,0
928505028478945,-1.0001999,3.426522,9.355937,-0.1875355,-0.12217296,0.5271763,0
928505037058945,-0.8853444,3.4169507,9.348758,-0.19058982,-0.1802051,0.47769627,0
928505045638945,-0.8709874,3.4743786,9.341579,-0.1753182,-0.2761109,0.42271844,0
928505054218945,-0.91166544,3.5964124,9.343972,-0.1472184,-0.41172287,0.3744601,0
928505062798945,-0.93320084,3.7423747,9.245867,-0.10995566,-0.5522218,0.33841908,0
928505071378997,-0.9499506,3.9074793,9.0233345,-0.07391464,-0.6591231,0.3121519,0
928505079958945,-0.9236295,4.063013,8.827123,-0.043982264,-0.7153227,0.29016078,0
928505088538945,-0.79441714,4.2352962,8.688339,-0.021991132,-0.73120517,0.26755878,0
928505097118997,-0.6149554,4.354937,8.568698,-0.0048869182,-0.70982486,0.24312419,0
928505105698997,-0.50009996,4.4051867,8.482556,0.007941242,-0.6688969,0.21563527,0
928505114278997,-0.41874397,4.3908296,8.331808,0.018325943,-0.6236929,0.18081598,0
928505122858997,-0.2847459,4.2855453,8.142776,0.021991132,-0.5760455,0.14110976,0
928505131438997,-0.11964113,4.180261,8.020741,0.015882485,-0.5222894,0.092851445,0
928505140018997,-0.0071784677,4.1036906,8.042277,-0.0024434591,-0.47647452,0.033597562,0
928505148598997,0.019142581,4.063013,8.082955,-0.029932374,-0.4575377,-0.03848448,0
928505157178997,0.0047856453,4.0797625,8.154739,-0.064140804,-0.45937032,-0.11484258,0
928505165758997,-0.078963146,4.1443686,8.236095,-0.100181825,-0.46120292,-0.19181155,0
928505174338997,-0.19621146,4.220939,8.336594,-0.13377939,-0.4489856,-0.262061,0
